'Elapsed time','chest_ecg','wrist_ppg','wrist_gyro_x','wrist_gyro_y','wrist_gyro_z','wrist_low_noise_accelerometer_x','wrist_low_noise_accelerometer_y','wrist_low_noise_accelerometer_z','wrist_wide_range_accelerometer_x','wrist_wide_range_accelerometer_y','wrist_wide_range_accelerometer_z','wrist_mag_x','wrist_mag_y','wrist_mag_z','sample_times_for_all_signals_apart_from_ecg'
'0:00.000',4.984,1220.715,-19.738,8.39,-9.783,3.127,-2.217,8.93,2.967,-2.315,8.886,-0.115,0.681,-0.62,50.999
'0:00.004',22.521,1219.814,-19.92,8.579,-8.935,3.174,-2.362,8.977,3.034,-2.345,8.917,-0.127,0.672,-0.576,51.003
'0:00.008',18.459,1218.984,-19.734,8.543,-8.662,3.174,-2.374,8.964,3.034,-2.404,8.897,-0.103,0.675,-0.551,51.007
'0:00.012',40.842,1218.315,-19.509,7.742,-7.704,3.15,-2.374,8.952,2.977,-2.442,8.857,-0.103,0.675,-0.551,51.011
'0:00.016',43.795,1217.811,-19.87,7.443,-6.953,3.101,-2.361,8.915,2.948,-2.442,8.856,-0.113,0.674,-0.547,51.015
'0:00.020',40.288,1217.374,-19.671,6.667,-6.67,3.077,-2.362,8.866,2.91,-2.422,8.855,-0.113,0.684,-0.595,51.019
'0:00.023',40.288,1216.88,-19.576,5.591,-6.458,3.028,-2.361,8.829,2.939,-2.443,8.758,-0.127,0.674,-0.578,51.023
'0:00.027',48.641,1216.269,-19.794,4.956,-6.106,3.003,-2.337,8.817,2.891,-2.443,8.718,-0.108,0.674,-0.586,51.027
'0:00.031',53.763,1215.533,-19.516,4.143,-5.563,2.979,-2.337,8.769,2.796,-2.443,8.668,-0.125,0.663,-0.601,51.031
'0:00.035',44.626,1214.682,-19.529,3.905,-5.341,2.967,-2.349,8.78,2.757,-2.422,8.697,-0.125,0.663,-0.601,51.034
'0:00.039',44.072,1213.755,-19.433,3.66,-4.833,2.979,-2.348,8.829,2.795,-2.412,8.727,-0.115,0.674,-0.568,51.038
'0:00.043',57.27,1212.803,-19.774,3.373,-4.162,2.954,-2.36,8.816,2.814,-2.441,8.756,-0.127,0.67,-0.586,51.042
'0:00.047',76.145,1211.893,-19.758,3.556,-3.612,2.954,-2.384,8.828,2.843,-2.451,8.786,-0.113,0.681,-0.597,51.046
'0:00.051',81.268,1211.076,-19.539,3.825,-3.144,3.015,-2.433,8.852,2.843,-2.441,8.776,-0.12,0.665,-0.607,51.05
'0:00.055',92.851,1210.39,-19.116,4.29,-2.48,3.1,-2.445,8.926,2.9,-2.462,8.777,-0.099,0.666,-0.58,51.054
'0:00.059',95.574,1209.873,-18.576,4.504,-1.401,3.112,-2.528,8.997,2.928,-2.518,8.923,-0.113,0.666,-0.632,51.058
'0:00.063',106.88,1209.53,-18.189,4.803,-0.09,3.124,-2.54,9.009,2.947,-2.557,8.933,-0.113,0.666,-0.632,51.062
'0:00.066',106.373,1209.389,-18.034,4.73,0.768,3.086,-2.6,8.959,2.967,-2.587,8.904,-0.124,0.661,-0.591,51.066
'0:00.070',110.941,1209.459,-17.822,4.467,1.66,3.074,-2.612,8.947,2.986,-2.656,8.855,-0.125,0.668,-0.595,51.07
'0:00.074',124.417,1209.731,-17.25,3.972,2.688,3.037,-2.636,8.946,2.929,-2.674,8.844,-0.101,0.665,-0.557,51.074
'0:00.078',128.986,1210.131,-17.276,3.764,3.428,2.976,-2.647,8.884,2.871,-2.674,8.814,-0.11,0.663,-0.611,51.077
'0:00.082',139.784,1210.575,-17.197,3.52,4.535,2.976,-2.636,8.848,2.813,-2.682,8.852,-0.12,0.661,-0.58,51.081
'0:00.086',136.831,1211.005,-17.276,3.11,5.172,2.927,-2.624,8.763,2.757,-2.665,8.665,-0.12,0.661,-0.645,51.085
'0:00.090',140.615,1211.378,-17.084,2.12,5.86,2.915,-2.601,8.703,2.757,-2.686,8.597,-0.108,0.666,-0.645,51.089
'0:00.094',155.429,1211.671,-17.471,1.729,6.303,2.94,-2.59,8.679,2.767,-2.646,8.656,-0.122,0.656,-0.614,51.093
'0:00.098',161.89,1211.886,-17.323,1.265,6.628,3.013,-2.567,8.741,2.824,-2.636,8.725,-0.111,0.661,-0.588,51.097
'0:00.102',156.767,1212.054,-17.508,1.247,7.555,3.05,-2.59,8.838,2.853,-2.637,8.716,-0.118,0.659,-0.595,51.101
'0:00.105',183.441,1212.208,-17.554,1.497,7.86,3.123,-2.615,8.887,2.9,-2.637,8.775,-0.106,0.666,-0.63,51.105
'0:00.109',184.272,1212.373,-17.366,1.412,8.579,3.135,-2.639,8.874,2.92,-2.638,8.746,-0.117,0.654,-0.622,51.109
'0:00.113',201.254,1212.561,-17.627,1.766,9.793,3.086,-2.615,8.814,2.91,-2.618,8.746,-0.117,0.654,-0.622,51.113
'0:00.117',195.855,1212.783,-17.885,1.338,12.647,3.026,-2.506,8.766,2.863,-2.569,8.697,-0.094,0.663,-0.593,51.117
'0:00.121',207.438,1213.066,-17.895,0.892,13.699,2.941,-2.457,8.742,2.795,-2.539,8.726,-0.106,0.649,-0.639,51.12
'0:00.125',214.176,1213.442,-17.839,0.8,14.927,2.844,-2.382,8.766,2.699,-2.431,8.666,-0.12,0.651,-0.599,51.124
'0:00.129',228.205,1213.916,-17.726,1.185,15.66,2.807,-2.381,8.765,2.642,-2.392,8.646,-0.115,0.658,-0.618,51.128
'0:00.133',261.663,1214.454,-17.409,2.371,16.297,2.868,-2.383,8.73,2.7,-2.413,8.588,-0.099,0.654,-0.599,51.132
'0:00.137',259.494,1214.988,-16.777,3.074,16.231,3.002,-2.494,8.778,2.853,-2.482,8.678,-0.099,0.652,-0.643,51.136
'0:00.141',257.879,1215.435,-16.505,3.685,16.311,3.16,-2.593,8.815,2.968,-2.59,8.728,-0.108,0.652,-0.643,51.14
'0:00.145',263.509,1215.714,-16.668,4.143,16.753,3.281,-2.704,8.827,3.131,-2.718,8.779,-0.11,0.654,-0.607,51.144
'0:00.148',273.246,1215.795,-16.859,4.296,18.061,3.244,-2.764,8.753,3.083,-2.795,8.777,-0.103,0.652,-0.668,51.148
'0:00.152',320.41,1215.694,-17.309,4.247,19.652,3.109,-2.799,8.677,2.978,-2.815,8.658,-0.104,0.642,-0.639,51.152
'0:00.156',336.055,1215.459,-17.419,4.161,21.437,2.913,-2.759,8.615,2.901,-2.823,8.657,-0.104,0.656,-0.616,51.156
'0:00.160',369.189,1215.119,-17.207,3.807,22.62,2.682,-2.67,8.589,2.623,-2.723,8.546,-0.113,0.651,-0.611,51.159
'0:00.164',360.052,1214.679,-17.323,3.569,23.949,2.463,-2.546,8.516,2.412,-2.644,8.445,-0.113,0.651,-0.611,51.163
'0:00.168',353.822,1214.158,-17.131,3.416,24.931,2.39,-2.45,8.444,2.336,-2.556,8.425,-0.094,0.658,-0.643,51.167
'0:00.172',353.037,1213.623,-16.879,3.416,25.049,2.44,-2.379,8.47,2.308,-2.402,8.347,-0.106,0.645,-0.634,51.171
'0:00.176',367.851,1213.153,-16.601,3.397,24.416,2.599,-2.381,8.508,2.317,-2.411,8.387,-0.08,0.652,-0.624,51.175
'0:00.180',382.942,1212.817,-16.333,3.483,24.025,2.782,-2.457,8.558,2.547,-2.491,8.468,-0.094,0.636,-0.655,51.179
'0:00.184',388.618,1212.629,-16.545,4.143,24.219,2.94,-2.58,8.618,2.662,-2.54,8.509,-0.106,0.643,-0.618,51.183
'0:00.188',429.044,1212.561,-16.502,5.108,25.45,3.049,-2.677,8.679,2.815,-2.676,8.657,-0.099,0.654,-0.632,51.187
'0:00.191',428.767,1212.558,-16.472,6.373,26.322,3.072,-2.785,8.713,2.882,-2.813,8.676,-0.099,0.654,-0.632,51.191
'0:00.195',432.044,1212.585,-16.158,7.339,27.581,3.035,-2.856,8.736,2.91,-2.862,8.676,-0.087,0.649,-0.616,51.195
'0:00.199',418.522,1212.635,-15.834,8.42,28.404,2.961,-2.878,8.747,2.814,-2.917,8.733,-0.089,0.642,-0.657,51.199
'0:00.203',390.787,1212.686,-15.417,9.258,29.477,2.912,-2.902,8.709,2.833,-2.947,8.703,-0.09,0.647,-0.626,51.202
'0:00.207',379.711,1212.719,-15.079,9.209,29.733,2.911,-2.961,8.744,2.747,-2.994,8.721,-0.061,0.647,-0.685,51.206
'0:00.211',346.576,1212.726,-14.365,9.594,29.778,2.886,-3.033,8.731,2.747,-3.053,8.691,-0.092,0.64,-0.645,51.21
'0:00.215',303.981,1212.709,-13.68,9.545,29.58,2.897,-3.092,8.79,2.737,-3.052,8.721,-0.092,0.64,-0.645,51.214
'0:00.219',276.2,1212.696,-13.581,9.129,29.124,2.86,-3.164,8.752,2.698,-3.187,8.758,-0.082,0.647,-0.618,51.218
'0:00.223',245.742,1212.692,-13.826,8.488,29.138,2.786,-3.151,8.715,2.698,-3.197,8.719,-0.08,0.64,-0.622,51.222
'0:00.227',230.651,1212.703,-13.806,7.852,29.314,2.677,-3.125,8.702,2.602,-3.197,8.658,-0.071,0.649,-0.662,51.226
'0:00.230',197.47,1212.753,-13.925,7.736,29.58,2.555,-3.086,8.713,2.555,-3.148,8.648,-0.082,0.64,-0.651,51.23
'0:00.234',159.213,1212.864,-13.197,7.913,29.366,2.531,-3.012,8.762,2.41,-3.096,8.676,-0.057,0.645,-0.653,51.234
'0:00.238',134.108,1213.032,-12.936,7.424,28.754,2.507,-2.963,8.775,2.4,-2.979,8.686,-0.071,0.636,-0.674,51.238
'0:00.242',101.758,1213.257,-13.081,6.685,27.491,2.508,-2.903,8.776,2.381,-2.949,8.706,-0.071,0.636,-0.674,51.242
'0:00.246',67.792,1213.536,-13.23,6.184,26.515,2.471,-2.867,8.716,2.372,-2.921,8.667,-0.069,0.638,-0.647,51.245
'0:00.250',50.025,1213.862,-13.164,6.013,25.858,2.399,-2.781,8.716,2.295,-2.871,8.666,-0.076,0.651,-0.662,51.249
'0:00.254',28.704,1214.252,-13.303,6.056,26.197,2.289,-2.719,8.692,2.209,-2.812,8.635,-0.057,0.649,-0.641,51.253
'0:00.258',67.515,1214.699,-13.141,6.19,26.007,2.204,-2.633,8.716,2.161,-2.685,8.645,-0.068,0.636,-0.678,51.257
'0:00.262',127.37,1215.166,-13.091,6.813,25.938,2.119,-2.582,8.74,2.064,-2.644,8.673,-0.047,0.64,-0.653,51.261
'0:00.266',109.049,1215.64,-12.846,7.54,25.076,2.082,-2.605,8.751,2.036,-2.634,8.653,-0.047,0.64,-0.653,51.265
'0:00.270',67.792,1216.114,-12.985,8.677,24.201,2.094,-2.642,8.739,2.026,-2.653,8.643,-0.052,0.64,-0.71,51.269
'0:00.273',37.888,1216.561,-13.012,9.899,23.585,2.093,-2.763,8.7,2.016,-2.75,8.633,-0.059,0.633,-0.657,51.273
'0:00.277',-4.984,1216.924,-12.916,11.256,23.212,2.079,-2.883,8.674,1.978,-2.797,8.671,-0.059,0.642,-0.662,51.277
'0:00.281',-30.873,1217.149,-12.8,13.737,23.329,2.041,-2.979,8.671,1.949,-2.944,8.601,-0.045,0.636,-0.641,51.281
'0:00.285',-38.673,1217.23,-12.261,14.69,22.939,2.016,-3.038,8.67,1.901,-3.06,8.599,-0.047,0.647,-0.687,51.284
'0:00.289',-35.442,1217.247,-12.35,15.393,22.316,1.991,-3.121,8.68,1.9,-3.088,8.657,-0.048,0.629,-0.659,51.288
'0:00.293',-31.15,1217.284,-11.794,16.022,21.375,2.002,-3.23,8.678,1.91,-3.245,8.588,-0.048,0.629,-0.659,51.292
'0:00.297',-51.64,1217.378,-11.463,15.949,20.877,2.013,-3.326,8.677,1.882,-3.283,8.597,-0.034,0.64,-0.685,51.296
'0:00.301',-58.655,1217.509,-11.368,16.022,20.199,1.963,-3.409,8.662,1.795,-3.388,8.585,-0.05,0.629,-0.689,51.3
'0:00.305',-54.317,1217.667,-10.841,15.606,19.535,1.901,-3.48,8.648,1.853,-3.497,8.565,-0.043,0.638,-0.662,51.304
'0:00.309',-55.655,1217.842,-10.405,15.014,19.075,1.827,-3.539,8.622,1.756,-3.562,8.583,-0.045,0.638,-0.672,51.308
'0:00.313',-34.658,1217.966,-10.315,14.067,18.518,1.742,-3.515,8.524,1.68,-3.612,8.464,-0.031,0.64,-0.697,51.312
'0:00.316',-34.935,1217.959,-9.786,13.254,17.784,1.742,-3.541,8.439,1.613,-3.602,8.404,-0.031,0.64,-0.697,51.316
'0:00.320',-39.226,1217.794,-9.31,12.233,16.283,1.803,-3.482,8.441,1.633,-3.583,8.424,-0.047,0.633,-0.693,51.32
'0:00.324',-51.917,1217.529,-8.87,10.962,14.91,1.914,-3.436,8.468,1.71,-3.517,8.397,-0.015,0.638,-0.664,51.324
'0:00.328',-56.209,1217.24,-8.595,10.144,13.474,2.025,-3.403,8.47,1.815,-3.508,8.418,-0.026,0.636,-0.714,51.327
'0:00.332',-52.148,1216.941,-8.575,9.374,12.82,2.098,-3.38,8.471,1.941,-3.404,8.401,-0.034,0.631,-0.67,51.331
'0:00.336',-66.177,1216.601,-8.178,9.361,12.232,2.136,-3.308,8.509,1.999,-3.397,8.324,-0.034,0.638,-0.685,51.335
'0:00.340',-68.346,1216.181,-7.96,8.622,11.578,2.161,-3.236,8.56,2.046,-3.356,8.453,-0.013,0.635,-0.668,51.339
'0:00.344',-67.285,1215.66,-6.981,8.194,10.966,2.149,-3.199,8.584,2.046,-3.307,8.482,-0.013,0.635,-0.668,51.343
'0:00.348',-59.439,1215.032,-6.752,8.2,10.655,2.174,-3.139,8.622,2.084,-3.258,8.532,-0.027,0.633,-0.703,51.347
'0:00.352',-55.148,1214.349,-6.177,8.182,10.492,2.199,-3.115,8.623,2.074,-3.199,8.562,-0.033,0.629,-0.672,51.351
'0:00.355',-49.194,1213.687,-5.657,8.029,9.887,2.211,-3.141,8.562,2.123,-3.171,8.543,-0.022,0.642,-0.735,51.355
'0:00.359',-49.194,1213.113,-4.747,7.553,9.738,2.175,-3.141,8.501,2.085,-3.172,8.455,-0.027,0.622,-0.701,51.359
'0:00.363',-49.471,1212.676,-4.248,6.801,10.112,2.052,-3.176,8.426,2.018,-3.182,8.415,-0.022,0.633,-0.672,51.363
'0:00.367',-60.27,1212.454,-3.646,6.661,10.561,1.966,-3.175,8.352,1.903,-3.23,8.305,-0.022,0.633,-0.672,51.367
'0:00.371',-40.842,1212.494,-2.875,6.789,10.717,1.941,-3.236,8.29,1.884,-3.241,8.275,-0.031,0.633,-0.676,51.37
'0:00.375',-49.194,1212.773,-2.16,6.324,9.928,2.038,-3.321,8.326,1.922,-3.357,8.323,-0.017,0.64,-0.703,51.374
'0:00.379',-46.795,1213.187,-1.052,6.263,9.202,2.147,-3.467,8.361,1.99,-3.465,8.304,-0.026,0.624,-0.687,51.378
'0:00.383',-62.947,1213.634,-0.49,5.5,8.666,2.194,-3.6,8.42,2.047,-3.524,8.305,0.001,0.636,-0.682,51.382
'0:00.387',-44.903,1214.097,0.235,4.931,9.091,2.156,-3.742,8.466,2.047,-3.717,8.362,-0.022,0.622,-0.708,51.386
'0:00.391',-44.072,1214.655,0.963,3.844,10.077,2.044,-3.848,8.474,1.989,-3.823,8.36,-0.033,0.626,-0.668,51.39
'0:00.395',-49.748,1215.375,1.548,2.67,10.824,1.922,-3.87,8.424,1.825,-3.936,8.386,-0.033,0.626,-0.668,51.394
'0:00.398',-59.163,1216.228,2.121,1.405,11.014,1.86,-3.869,8.386,1.768,-3.936,8.336,-0.033,0.633,-0.693,51.398
'0:00.402',-59.993,1217.095,2.604,-0.483,10.527,1.886,-3.797,8.412,1.749,-3.917,8.297,-0.012,0.64,-0.672,51.402
'0:00.406',-62.162,1217.825,3.034,-2.896,9.645,1.972,-3.726,8.451,1.855,-3.851,8.279,-0.006,0.633,-0.697,51.406
'0:00.410',-62.67,1218.315,3.212,-4.681,9.16,2.034,-3.679,8.477,1.864,-3.773,8.348,-0.019,0.631,-0.668,51.409
'0:00.414',-65.9,1218.534,3.474,-5.885,9.371,2.01,-3.617,8.562,1.892,-3.693,8.457,-0.01,0.635,-0.735,51.413
'0:00.418',-72.638,1218.544,3.97,-6.581,10.112,2.035,-3.532,8.649,1.902,-3.693,8.457,-0.01,0.635,-0.735,51.417
'0:00.422',-73.746,1218.443,4.423,-6.917,10.233,2.11,-3.448,8.712,1.939,-3.546,8.576,-0.019,0.627,-0.685,51.421
'0:00.426',-63.224,1218.319,5.019,-7.424,9.952,2.196,-3.366,8.703,2.025,-3.459,8.647,-0.015,0.636,-0.662,51.425
'0:00.430',-65.9,1218.228,4.956,-7.895,9.669,2.259,-3.26,8.669,2.102,-3.413,8.609,-0.024,0.635,-0.662,51.429
'0:00.434',-66.454,1218.221,4.903,-7.791,10.112,2.248,-3.152,8.635,2.122,-3.248,8.611,-0.006,0.635,-0.705,51.433
'0:00.438',-69.684,1218.268,4.863,-8.182,10.873,2.187,-3.066,8.648,2.064,-3.179,8.601,-0.022,0.629,-0.687,51.437
'0:00.441',-55.425,1218.295,5.009,-8.011,11.575,2.127,-2.98,8.697,2.026,-3.081,8.63,-0.003,0.64,-0.672,51.441
'0:00.445',-64.008,1218.235,5.336,-7.547,11.699,2.14,-2.967,8.77,2.054,-3.08,8.689,-0.003,0.64,-0.672,51.445
'0:00.449',-67.285,1218.08,5.399,-6.991,10.845,2.176,-2.979,8.806,2.034,-3.039,8.787,-0.02,0.626,-0.701,51.449
'0:00.453',-66.177,1217.838,5.575,-6.917,10.136,2.261,-3.052,8.867,2.14,-3.06,8.779,-0.022,0.631,-0.672,51.452
'0:00.457',-67.792,1217.489,5.773,-7.192,9.551,2.37,-3.115,8.855,2.178,-3.089,8.818,-0.027,0.64,-0.685,51.456
'0:00.461',-84.775,1217.011,6.061,-7.528,9.582,2.406,-3.188,8.842,2.255,-3.218,8.769,-0.012,0.638,-0.655,51.46
'0:00.465',-79.145,1216.416,6.17,-7.479,10.118,2.382,-3.224,8.817,2.255,-3.246,8.799,-0.022,0.631,-0.695,51.464
'0:00.469',-69.961,1215.758,6.249,-7.742,10.658,2.259,-3.222,8.791,2.159,-3.274,8.767,-0.022,0.631,-0.668,51.468
'0:00.473',-69.131,1215.082,6.56,-7.577,10.544,2.173,-3.208,8.79,2.063,-3.254,8.737,-0.013,0.636,-0.668,51.472
'0:00.477',-66.731,1214.447,6.891,-7.925,9.496,2.1,-3.194,8.814,2.015,-3.264,8.707,-0.008,0.642,-0.728,51.476
'0:00.480',-65.67,1213.929,6.653,-8.39,8.769,2.075,-3.242,8.752,1.977,-3.272,8.715,-0.022,0.629,-0.68,51.48
'0:00.484',-77.53,1213.61,6.967,-9.233,8.053,2.051,-3.243,8.655,1.9,-3.282,8.656,-0.017,0.64,-0.664,51.484
'0:00.488',-55.425,1213.57,6.901,-9.581,8.136,1.99,-3.195,8.582,1.891,-3.245,8.568,-0.013,0.635,-0.651,51.488
'0:00.492',-40.288,1213.849,6.898,-10.192,8.174,1.868,-3.146,8.496,1.854,-3.197,8.489,-0.003,0.643,-0.701,51.492
'0:00.496',-50.81,1214.43,6.802,-9.966,8.544,1.832,-3.086,8.425,1.672,-3.158,8.36,-0.003,0.643,-0.701,51.495
'0:00.500',-61.332,1215.243,6.723,-9.667,8.34,1.821,-3.002,8.426,1.682,-3.052,8.302,-0.015,0.635,-0.672,51.499
'0:00.504',-58.101,1216.151,6.587,-9.19,7.998,1.883,-2.954,8.512,1.72,-3.021,8.411,-0.001,0.638,-0.724,51.503
'0:00.508',-56.763,1216.984,6.716,-8.549,7.278,2.005,-2.931,8.599,1.854,-2.954,8.501,-0.02,0.629,-0.699,51.507
'0:00.512',-43.287,1217.586,6.537,-7.675,6.901,2.128,-2.945,8.649,1.921,-2.984,8.531,-0.01,0.638,-0.666,51.511
'0:00.516',-51.363,1217.889,6.66,-6.465,7.514,2.164,-2.993,8.697,1.968,-3.061,8.61,-0.029,0.645,-0.682,51.515
'0:00.520',-42.734,1217.936,6.468,-5.31,8.268,2.139,-3.04,8.708,1.987,-3.11,8.62,-0.012,0.645,-0.697,51.519
'0:00.523',-40.565,1217.805,6.951,-4.204,8.922,2.15,-3.101,8.707,1.987,-3.119,8.649,-0.012,0.645,-0.697,51.523
'0:00.527',-41.672,1217.583,7.166,-3.721,9.219,2.15,-3.112,8.731,1.996,-3.137,8.688,-0.02,0.638,-0.697,51.527
'0:00.531',-44.349,1217.314,7.338,-3.422,9.088,2.088,-3.147,8.73,1.967,-3.166,8.697,0.004,0.636,-0.68,51.531
'0:00.535',-50.302,1217.038,7.576,-3.233,9.25,2.076,-3.147,8.705,1.939,-3.186,8.647,-0.008,0.624,-0.722,51.534
'0:00.539',-40.842,1216.823,7.54,-3.3,9.067,2.003,-3.146,8.643,1.853,-3.205,8.587,-0.019,0.642,-0.668,51.538
'0:00.543',-55.425,1216.773,7.523,-3.947,8.783,1.991,-3.147,8.619,1.872,-3.177,8.549,-0.017,0.645,-0.68,51.542
'0:00.547',-57.824,1216.934,7.616,-4.571,8.486,1.966,-3.145,8.655,1.804,-3.193,8.625,-0.017,0.645,-0.68,51.546
'0:00.551',-45.964,1217.274,7.917,-4.803,8.313,1.99,-3.181,8.703,1.814,-3.184,8.635,-0.006,0.64,-0.655,51.55
'0:00.555',-35.996,1217.704,7.9,-5.096,7.749,2.076,-3.183,8.704,1.919,-3.185,8.667,-0.005,0.642,-0.697,51.554
'0:00.559',-24.92,1218.194,8.109,-5.591,6.953,2.161,-3.245,8.704,1.996,-3.206,8.658,-0.017,0.635,-0.662,51.558
'0:00.563',-21.967,1218.762,8.109,-6.147,6.085,2.271,-3.259,8.742,2.093,-3.266,8.659,0.002,0.643,-0.72,51.562
'0:00.566',-9.553,1219.438,7.953,-6.471,6.462,2.258,-3.271,8.742,2.112,-3.286,8.64,-0.019,0.633,-0.697,51.566
'0:00.570',-14.952,1220.171,8.082,-6.288,7.147,2.234,-3.246,8.742,2.092,-3.265,8.728,-0.012,0.64,-0.657,51.57
'0:00.574',-19.29,1220.826,8.162,-5.958,7.434,2.247,-3.211,8.718,2.112,-3.266,8.669,-0.012,0.64,-0.657,51.574
'0:00.578',-22.244,1221.266,8.251,-6.196,7.143,2.296,-3.175,8.756,2.15,-3.247,8.67,-0.012,0.649,-0.666,51.577
'0:00.582',-20.075,1221.411,8.251,-6.777,6.6,2.321,-3.151,8.805,2.198,-3.246,8.749,-0.006,0.647,-0.689,51.581
'0:00.586',-10.937,1221.253,8.162,-7.149,6.251,2.285,-3.126,8.769,2.179,-3.217,8.729,-0.02,0.636,-0.689,51.585
'0:00.590',13.614,1220.87,8.426,-7.186,6.708,2.236,-3.077,8.793,2.15,-3.158,8.758,0.004,0.643,-0.662,51.589
'0:00.594',26.028,1220.403,8.536,-7.565,7.282,2.2,-3.028,8.77,2.102,-3.079,8.778,-0.005,0.631,-0.703,51.593
'0:00.598',26.812,1220.023,8.777,-7.907,7.067,2.225,-2.969,8.771,2.063,-3.04,8.748,-0.005,0.631,-0.703,51.597
'0:00.602',46.795,1219.865,8.741,-8.427,6.552,2.237,-2.956,8.808,2.102,-2.982,8.759,-0.02,0.642,-0.657,51.601
'0:00.605',38.165,1219.949,8.711,-8.329,6.275,2.286,-2.969,8.82,2.111,-2.973,8.74,-0.019,0.647,-0.67,51.605
'0:00.609',29.535,1220.167,8.701,-8.072,6.196,2.311,-2.994,8.82,2.149,-2.992,8.799,-0.006,0.651,-0.655,51.609
'0:00.613',11.445,1220.349,8.79,-7.913,5.898,2.322,-3.03,8.832,2.208,-3.004,8.761,-0.015,0.645,-0.689,51.613
'0:00.617',13.06,1220.315,8.946,-7.956,5.85,2.334,-3.066,8.855,2.188,-3.11,8.789,-0.008,0.642,-0.655,51.617
'0:00.621',15.229,1219.946,8.747,-7.504,6.154,2.285,-3.112,8.878,2.131,-3.119,8.749,-0.008,0.647,-0.718,51.62
'0:00.625',-10.66,1219.193,8.823,-7.094,6.178,2.211,-3.134,8.913,2.063,-3.156,8.786,-0.008,0.647,-0.718,51.624
'0:00.629',-34.381,1218.094,8.939,-7.162,6.317,2.125,-3.156,8.923,1.995,-3.193,8.824,-0.02,0.64,-0.682,51.628
'0:00.633',-51.64,1216.769,8.675,-7.449,6.109,2.075,-3.191,8.934,1.918,-3.211,8.842,-0.01,0.645,-0.651,51.632
'0:00.637',-50.533,1215.401,8.761,-7.919,5.608,2.026,-3.214,8.933,1.899,-3.22,8.851,-0.008,0.649,-0.655,51.636
'0:00.641',-49.748,1214.155,8.804,-8.634,5.109,1.977,-3.213,8.92,1.841,-3.248,8.86,-0.008,0.652,-0.682,51.64
'0:00.645',-60.27,1213.133,8.42,-9.429,4.573,1.953,-3.176,8.896,1.86,-3.21,8.851,-0.024,0.645,-0.682,51.644
'0:00.648',-67.792,1212.323,8.43,-9.746,4.103,1.966,-3.165,8.885,1.851,-3.201,8.792,-0.024,0.645,-0.682,51.648
'0:00.652',-83.437,1211.644,8.337,-9.801,3.245,1.991,-3.069,8.899,1.87,-3.152,8.822,0.004,0.651,-0.653,51.652
'0:00.656',-96.358,1211.029,8.119,-9.588,2.152,2.052,-3.083,8.9,1.909,-3.123,8.833,-0.015,0.651,-0.695,51.656
'0:00.660',-95.297,1210.518,8.195,-8.836,1.034,2.126,-3.084,8.925,1.927,-3.084,8.872,-0.02,0.647,-0.651,51.659
'0:00.664',-93.128,1210.219,8.165,-8.127,0.135,2.199,-3.109,8.925,2.043,-3.164,8.844,-0.024,0.654,-0.668,51.663
'0:00.668',-102.865,1210.246,7.89,-7.76,-0.467,2.223,-3.122,8.937,2.12,-3.185,8.865,-0.012,0.652,-0.651,51.667
'0:00.672',-100.696,1210.649,7.761,-7.192,-0.872,2.223,-3.122,8.937,2.119,-3.223,8.914,-0.017,0.649,-0.687,51.671
'0:00.676',-95.297,1211.459,7.775,-6.893,-1.138,2.186,-3.133,8.949,2.12,-3.214,8.875,-0.017,0.649,-0.687,51.675
'0:00.680',-93.682,1212.662,7.844,-7.046,-2.166,2.138,-3.109,8.9,2.072,-3.194,8.845,-0.024,0.649,-0.647,51.679
'0:00.684',-76.976,1214.212,7.821,-7.033,-2.902,2.064,-3.107,8.875,1.995,-3.106,8.815,-0.013,0.652,-0.71,51.683
'0:00.688',-72.915,1216.03,7.831,-7.308,-3.362,2.003,-3.082,8.875,1.967,-3.116,8.785,-0.027,0.647,-0.676,51.687
'0:00.691',-70.238,1218.013,7.914,-7.211,-3.764,1.93,-3.045,8.838,1.87,-3.075,8.803,-0.019,0.656,-0.641,51.691
'0:00.695',-76.976,1220.006,8.178,-7.339,-4.687,1.906,-3.009,8.802,1.832,-2.987,8.794,-0.027,0.654,-0.647,51.695
'0:00.699',-73.469,1221.831,8.698,-7.522,-5.846,1.931,-2.985,8.803,1.803,-2.986,8.812,-0.027,0.654,-0.647,51.699
'0:00.703',-75.084,1223.29,8.909,-7.901,-7.275,1.98,-3.023,8.791,1.87,-3.027,8.794,-0.015,0.663,-0.676,51.702
'0:00.707',-74.53,1224.211,8.757,-8.139,-8.174,2.004,-3.012,8.755,1.88,-3.046,8.774,-0.026,0.647,-0.653,51.706
'0:00.711',-56.763,1224.516,8.787,-8.066,-8.423,2.004,-3.013,8.707,1.929,-3.068,8.687,-0.012,0.659,-0.643,51.71
'0:00.715',-46.241,1224.204,8.856,-8.231,-8.897,2.029,-3.002,8.695,1.92,-3.07,8.58,-0.024,0.643,-0.689,51.714
'0:00.719',-39.78,1223.36,9.627,-7.95,-9.838,2.053,-3.015,8.659,1.92,-3.07,8.589,-0.036,0.654,-0.641,51.718
'0:00.723',-40.565,1222.13,9.33,-7.852,-10.585,2.101,-3.076,8.658,1.939,-3.109,8.609,-0.038,0.656,-0.659,51.722
'0:00.727',-72.638,1220.678,9.816,-7.791,-11.395,2.125,-3.137,8.657,1.978,-3.139,8.58,-0.038,0.656,-0.659,51.726
'0:00.730',-71.853,1219.112,10.12,-7.657,-11.955,2.15,-3.162,8.633,1.997,-3.178,8.57,-0.02,0.656,-0.632,51.73
'0:00.734',14.952,1217.509,10.564,-7.712,-12.284,2.174,-3.15,8.658,2.026,-3.179,8.581,-0.027,0.651,-0.666,51.734
'0:00.738',172.688,1215.983,10.425,-7.932,-12.495,2.15,-3.126,8.646,2.045,-3.149,8.64,-0.029,0.654,-0.624,51.738
'0:00.742',357.883,1214.712,10.712,-8.213,-13.342,2.125,-3.125,8.633,2.025,-3.236,8.648,-0.026,0.659,-0.693,51.742
'0:00.746',520.972,1213.852,11.06,-8.17,-13.564,2.113,-3.149,8.645,1.987,-3.207,8.609,-0.036,0.649,-0.657,51.745
'0:00.750',567.352,1213.523,11.589,-8.555,-14.318,2.138,-3.137,8.658,1.997,-3.148,8.619,-0.036,0.649,-0.657,51.749
'0:00.754',358.944,1213.781,12.257,-8.781,-14.802,2.162,-3.114,8.646,1.997,-3.168,8.59,-0.034,0.661,-0.626,51.753
'0:00.758',59.163,1214.638,12.618,-8.97,-15.006,2.187,-3.114,8.647,2.045,-3.14,8.591,-0.045,0.659,-0.632,51.757
'0:00.762',-270.016,1216.027,13.088,-9.221,-15.179,2.212,-3.067,8.624,2.074,-3.073,8.592,-0.034,0.665,-0.666,51.761
'0:00.766',-641.789,1217.818,13.7,-9.258,-15.515,2.212,-3.032,8.588,2.084,-3.035,8.534,-0.041,0.659,-0.639,51.765
'0:00.770',-874.148,1219.774,13.968,-9.911,-15.972,2.238,-2.937,8.566,2.104,-2.998,8.466,-0.019,0.663,-0.63,51.769
'0:00.773',-895.746,1221.616,14.047,-10.315,-16.594,2.251,-2.89,8.543,2.133,-2.988,8.486,-0.054,0.659,-0.611,51.773
'0:00.777',-797.034,1223.088,15.301,-9.917,-17.469,2.3,-2.891,8.531,2.162,-2.941,8.429,-0.054,0.659,-0.611,51.777
'0:00.781',-646.358,1224.043,15.754,-9.6,-17.988,2.336,-2.891,8.568,2.181,-2.951,8.448,-0.054,0.67,-0.616,51.781
'0:00.785',-490.791,1224.422,16.3,-9.258,-18.493,2.349,-2.903,8.58,2.181,-2.93,8.507,-0.026,0.666,-0.628,51.784
'0:00.789',-308.273,1224.234,16.763,-8.799,-18.552,2.348,-2.951,8.591,2.267,-2.99,8.528,-0.061,0.661,-0.626,51.788
'0:00.793',-159.213,1223.552,17.16,-8.653,-18.853,2.348,-2.975,8.567,2.219,-2.97,8.478,-0.055,0.668,-0.611,51.792
'0:00.797',-82.375,1222.507,17.729,-8.555,-19.22,2.348,-2.975,8.591,2.219,-3.018,8.507,-0.057,0.666,-0.618,51.796
'0:00.801',-36.55,1221.287,18.123,-8.995,-19.728,2.335,-2.974,8.615,2.238,-3.028,8.527,-0.057,0.666,-0.618,51.8
'0:00.805',-26.812,1220.1,18.365,-9.319,-20.265,2.323,-2.974,8.603,2.209,-3.045,8.624,-0.048,0.663,-0.676,51.804
'0:00.809',4.2,1219.102,18.696,-9.52,-20.991,2.336,-2.963,8.603,2.2,-3.017,8.565,-0.055,0.659,-0.634,51.808
'0:00.813',20.352,1218.369,19.258,-9.777,-21.517,2.348,-2.925,8.665,2.219,-2.978,8.585,-0.052,0.668,-0.605,51.812
'0:00.816',17.675,1217.872,19.728,-10.333,-22.316,2.336,-2.937,8.688,2.257,-2.94,8.586,-0.055,0.665,-0.607,51.816
'0:00.820',16.29,1217.542,20.284,-10.62,-22.721,2.385,-2.914,8.665,2.209,-2.901,8.576,-0.047,0.672,-0.643,51.82
'0:00.824',38.673,1217.321,20.776,-10.718,-23.098,2.398,-2.867,8.666,2.276,-2.921,8.596,-0.064,0.663,-0.622,51.824
'0:00.828',48.641,1217.166,21.226,-11.066,-23.53,2.398,-2.819,8.655,2.286,-2.891,8.616,-0.064,0.663,-0.622,51.827
'0:00.832',50.025,1217.021,21.815,-11.537,-23.966,2.411,-2.734,8.693,2.286,-2.784,8.647,-0.045,0.67,-0.607,51.831
'0:00.836',52.148,1216.796,21.862,-11.977,-24.513,2.375,-2.685,8.681,2.286,-2.726,8.647,-0.064,0.658,-0.641,51.835
'0:00.840',67.515,1216.44,21.868,-12.343,-24.952,2.388,-2.638,8.646,2.266,-2.735,8.627,-0.076,0.668,-0.605,51.839
'0:00.844',69.961,1215.969,22.474,-12.563,-25.713,2.364,-2.602,8.622,2.228,-2.647,8.637,-0.078,0.674,-0.618,51.843
'0:00.848',62.67,1215.442,22.831,-12.557,-26.104,2.401,-2.591,8.647,2.238,-2.657,8.617,-0.062,0.672,-0.582,51.847
'0:00.852',80.991,1214.884,23.258,-12.844,-26.647,2.426,-2.543,8.636,2.295,-2.629,8.648,-0.062,0.672,-0.582,51.851
'0:00.855',68.9,1214.312,23.632,-13.168,-26.83,2.426,-2.496,8.613,2.296,-2.523,8.571,-0.069,0.672,-0.62,51.855
'0:00.859',69.961,1213.795,23.655,-13.358,-26.969,2.44,-2.376,8.603,2.325,-2.467,8.513,-0.073,0.675,-0.593,51.859
'0:00.863',71.023,1213.449,23.873,-13.718,-27.349,2.502,-2.306,8.581,2.307,-2.38,8.445,-0.069,0.674,-0.651,51.863
'0:00.867',75.868,1213.402,24.052,-14.115,-27.823,2.527,-2.234,8.595,2.374,-2.333,8.437,-0.08,0.67,-0.603,51.867
'0:00.871',78.037,1213.728,24.101,-13.938,-28.183,2.577,-2.175,8.584,2.393,-2.294,8.477,-0.068,0.679,-0.576,51.87
'0:00.875',85.052,1214.433,24.125,-13.474,-28.588,2.663,-2.129,8.574,2.451,-2.189,8.43,-0.075,0.677,-0.563,51.874
'0:00.879',87.775,1215.452,24.171,-12.802,-28.598,2.712,-2.118,8.623,2.538,-2.151,8.441,-0.075,0.677,-0.563,51.878
'0:00.883',87.775,1216.655,24.029,-12.123,-28.819,2.774,-2.095,8.637,2.595,-2.15,8.54,-0.082,0.686,-0.62,51.882
'0:00.887',90.451,1217.879,23.989,-11.531,-28.366,2.798,-2.083,8.625,2.586,-2.122,8.501,-0.089,0.674,-0.588,51.886
'0:00.891',107.157,1218.964,23.589,-10.846,-28.017,2.786,-2.071,8.625,2.643,-2.133,8.492,-0.069,0.682,-0.582,51.89
'0:00.895',115.51,1219.771,23.85,-10.339,-27.474,2.774,-2.046,8.65,2.643,-2.114,8.482,-0.094,0.663,-0.607,51.894
'0:00.898',105.265,1220.184,23.493,-9.917,-27.09,2.774,-2.046,8.65,2.605,-2.161,8.511,-0.096,0.681,-0.563,51.898
'0:00.902',121.74,1220.161,23.304,-9.398,-26.972,2.75,-2.057,8.698,2.604,-2.121,8.55,-0.096,0.681,-0.563,51.902
'0:00.906',136.277,1219.707,23.185,-8.86,-27.007,2.749,-2.093,8.709,2.575,-2.149,8.569,-0.108,0.691,-0.584,51.906
'0:00.910',135.492,1218.86,23.006,-8.653,-26.515,2.761,-2.092,8.77,2.614,-2.207,8.618,-0.089,0.691,-0.586,51.909
'0:00.914',147.076,1217.71,22.848,-8.237,-25.858,2.773,-2.115,8.818,2.575,-2.206,8.637,-0.104,0.679,-0.599,51.913
'0:00.918',155.429,1216.42,23.106,-7.883,-25.267,2.748,-2.138,8.866,2.584,-2.196,8.715,-0.082,0.686,-0.57,51.917
'0:00.922',169.966,1215.203,22.867,-7.785,-24.464,2.785,-2.126,8.891,2.651,-2.167,8.765,-0.097,0.684,-0.62,51.921
'0:00.926',181.826,1214.269,22.589,-7.449,-23.883,2.798,-2.126,8.903,2.622,-2.176,8.755,-0.11,0.682,-0.574,51.925
'0:00.930',180.764,1213.724,22.358,-7.479,-23.233,2.859,-2.103,8.929,2.641,-2.167,8.716,-0.11,0.682,-0.574,51.929
'0:00.934',194.794,1213.57,22.083,-7.65,-22.963,2.896,-2.08,8.929,2.661,-2.128,8.756,-0.11,0.689,-0.565,51.933
'0:00.938',189.117,1213.714,21.713,-8.274,-22.579,2.97,-2.081,8.943,2.709,-2.109,8.757,-0.096,0.691,-0.542,51.937
'0:00.941',203.423,1214.07,21.078,-8.353,-22.122,2.97,-2.069,8.943,2.766,-2.149,8.787,-0.104,0.686,-0.586,51.941
'0:00.945',227.421,1214.612,20.257,-8.683,-20.766,3.006,-2.058,8.968,2.824,-2.101,8.808,-0.113,0.686,-0.561,51.945
'0:00.949',239.788,1215.334,19.718,-8.885,-20.14,3.043,-2.046,8.992,2.832,-2.099,8.925,-0.101,0.695,-0.561,51.949
'0:00.953',256.264,1216.174,18.921,-9.105,-19.753,3.031,-2.033,9.017,2.939,-2.082,8.868,-0.101,0.695,-0.572,51.952
'0:00.957',254.879,1217.011,18.325,-9.795,-19.227,3.068,-2.01,9.018,2.958,-2.044,8.859,-0.113,0.682,-0.572,51.956
'0:00.961',285.106,1217.731,17.574,-10.137,-18.857,3.093,-1.962,9.055,2.967,-2.004,8.899,-0.113,0.693,-0.545,51.96
'0:00.965',289.675,1218.292,16.711,-10.51,-19.005,3.143,-1.926,9.105,3.025,-1.986,8.89,-0.129,0.697,-0.555,51.964
'0:00.969',315.841,1218.746,15.854,-10.321,-18.656,3.155,-1.914,9.13,2.986,-2.004,8.928,-0.094,0.677,-0.62,51.968
'0:00.973',333.101,1219.169,14.699,-10.089,-18.514,3.192,-1.89,9.155,2.996,-1.955,8.988,-0.099,0.677,-0.609,51.972
'0:00.977',335.224,1219.596,14.249,-9.881,-18.127,3.18,-1.829,9.204,3.033,-1.906,9.047,-0.11,0.689,-0.597,51.976
'0:00.980',335.778,1220.04,13.349,-10.101,-17.815,3.18,-1.828,9.253,3.014,-1.884,9.125,-0.11,0.689,-0.597,51.98
'0:00.984',354.099,1220.507,12.625,-9.917,-17.684,3.193,-1.78,9.278,3.004,-1.874,9.135,-0.101,0.688,-0.586,51.984
'0:00.988',359.498,1220.981,11.268,-9.484,-17.452,3.156,-1.767,9.265,3.023,-1.865,9.135,-0.11,0.679,-0.609,51.988
'0:00.992',376.758,1221.431,10.302,-8.995,-17.397,3.181,-1.743,9.303,2.994,-1.805,9.164,-0.103,0.681,-0.614,51.992
'0:00.996',413.169,1221.808,9.591,-8.701,-17.265,3.194,-1.706,9.352,3.014,-1.768,9.126,-0.101,0.684,-0.565,51.995
'0:01.000',430.429,1222.07,8.337,-8.243,-17.251,3.218,-1.695,9.352,3.081,-1.768,9.156,-0.134,0.684,-0.542,51.999
'0:01.004',433.105,1222.167,7.464,-7.485,-17.476,3.231,-1.659,9.365,3.061,-1.737,9.254,-0.134,0.697,-0.517,52.003
'0:01.008',438.781,1222.09,6.435,-6.771,-17.376,3.243,-1.658,9.414,3.08,-1.747,9.284,-0.122,0.697,-0.517,52.007
'0:01.012',439.566,1221.895,5.396,-5.994,-17.047,3.182,-1.607,9.474,3.041,-1.688,9.283,-0.131,0.695,-0.522,52.011
'0:01.016',429.044,1221.683,4.003,-5.61,-16.753,3.122,-1.583,9.438,3.022,-1.638,9.313,-0.136,0.684,-0.565,52.015
'0:01.020',416.122,1221.545,2.627,-5.029,-16.705,3.048,-1.534,9.389,2.946,-1.58,9.224,-0.136,0.691,-0.528,52.019
'0:01.023',385.941,1221.535,1.608,-4.693,-16.508,2.975,-1.533,9.352,2.841,-1.599,9.163,-0.139,0.695,-0.536,52.023
'0:01.027',357.329,1221.643,0.844,-4.491,-16.515,2.901,-1.568,9.326,2.821,-1.608,9.173,-0.127,0.693,-0.559,52.027
'0:01.031',340.9,1221.808,-0.093,-4.339,-16.407,2.815,-1.591,9.276,2.725,-1.647,9.112,-0.127,0.693,-0.559,52.031
'0:01.035',299.643,1221.965,-1.105,-3.972,-16.349,2.791,-1.602,9.263,2.677,-1.646,9.102,-0.143,0.691,-0.557,52.034
'0:01.039',257.325,1222.097,-1.634,-3.318,-16.459,2.802,-1.663,9.25,2.678,-1.704,9.091,-0.12,0.698,-0.532,52.038
'0:01.043',211.222,1222.228,-2.263,-2.725,-16.072,2.814,-1.711,9.274,2.668,-1.723,9.121,-0.129,0.682,-0.58,52.042
'0:01.047',179.149,1222.372,-3.12,-2.047,-16.328,2.875,-1.736,9.298,2.706,-1.753,9.092,-0.146,0.688,-0.524,52.046
'0:01.051',144.076,1222.544,-4.056,-1.363,-16.259,2.936,-1.786,9.274,2.706,-1.83,9.14,-0.148,0.695,-0.542,52.05
'0:01.055',120.356,1222.742,-5.049,-0.55,-16.269,2.972,-1.823,9.262,2.754,-1.86,9.16,-0.148,0.695,-0.517,52.054
'0:01.059',96.128,1222.937,-5.892,0.263,-16.189,3.02,-1.872,9.237,2.812,-1.9,9.122,-0.134,0.695,-0.517,52.058
'0:01.063',66.177,1223.075,-6.749,1.094,-15.927,3.057,-1.873,9.25,2.841,-1.939,9.131,-0.145,0.688,-0.557,52.062
'0:01.066',33.273,1223.128,-7.596,2.01,-16.338,3.069,-1.934,9.237,2.898,-1.95,9.142,-0.146,0.684,-0.538,52.066
'0:01.070',13.891,1223.105,-8.493,2.505,-16.176,3.13,-1.936,9.201,2.937,-2.088,9.083,-0.125,0.697,-0.574,52.07
'0:01.074',-9.045,1223.028,-9.313,3.245,-15.958,3.093,-1.972,9.164,2.927,-2.01,9.084,-0.15,0.682,-0.565,52.074
'0:01.078',-16.29,1222.933,-9.852,3.923,-15.56,3.105,-1.972,9.164,2.937,-2.02,9.064,-0.143,0.691,-0.534,52.077
'0:01.082',-30.597,1222.86,-10.746,4.54,-15.415,3.081,-1.947,9.176,2.947,-1.991,9.065,-0.143,0.691,-0.534,52.081
'0:01.086',-33.042,1222.829,-11.559,5.011,-15.359,3.069,-1.9,9.141,2.927,-1.971,9.055,-0.153,0.689,-0.534,52.085
'0:01.090',-37.057,1222.856,-12.337,5.365,-15.352,3.094,-1.841,9.094,2.985,-1.953,9.085,-0.141,0.689,-0.561,52.089
'0:01.094',-57.547,1222.913,-13.31,5.658,-15.186,3.107,-1.794,9.071,2.967,-1.876,9.027,-0.134,0.688,-0.551,52.093
'0:01.098',-61.885,1222.933,-13.528,5.988,-15.418,3.132,-1.734,9.072,2.996,-1.781,8.94,-0.139,0.677,-0.591,52.097
'0:01.102',-61.055,1222.866,-14.193,6.355,-15.259,3.145,-1.675,9.061,2.986,-1.731,8.979,-0.146,0.681,-0.565,52.101
'0:01.105',-51.363,1222.695,-14.726,6.679,-14.671,3.109,-1.614,9.025,2.939,-1.655,8.842,-0.129,0.674,-0.618,52.105
'0:01.109',-56.486,1222.433,-15.883,6.661,-13.588,3.085,-1.578,8.99,2.949,-1.636,8.862,-0.129,0.674,-0.618,52.109
'0:01.113',-57.824,1222.07,-16.916,6.062,-13.457,3.11,-1.507,9.003,2.93,-1.558,8.843,-0.124,0.675,-0.609,52.113
'0:01.117',-59.439,1221.602,-17.521,5.738,-13.533,3.11,-1.519,8.955,2.969,-1.569,8.815,-0.138,0.682,-0.588,52.117
'0:01.121',-58.886,1221.028,-17.885,5.933,-13.574,3.122,-1.557,8.894,2.969,-1.627,8.804,-0.15,0.686,-0.547,52.12
'0:01.125',-51.917,1220.376,-17.865,6.037,-13.131,3.121,-1.654,8.856,2.988,-1.697,8.736,-0.148,0.688,-0.542,52.124
'0:01.129',-43.011,1219.714,-18.037,6.184,-12.422,3.158,-1.691,8.868,2.998,-1.717,8.736,-0.143,0.688,-0.522,52.128
'0:01.133',-43.518,1219.088,-18.401,6.575,-11.945,3.193,-1.775,8.879,3.007,-1.785,8.725,-0.143,0.688,-0.522,52.132
'0:01.137',-57.04,1218.494,-18.696,7.009,-11.27,3.169,-1.811,8.841,2.998,-1.824,8.715,-0.139,0.686,-0.572,52.136
'0:01.141',-54.871,1217.919,-19.334,7.113,-10.188,3.143,-1.859,8.816,2.988,-1.892,8.714,-0.153,0.677,-0.54,52.14
'0:01.145',-51.363,1217.428,-19.354,7.547,-9.254,3.082,-1.894,8.79,2.959,-1.901,8.704,-0.134,0.691,-0.591,52.144
'0:01.148',-45.964,1217.119,-19.513,7.98,-8.551,3.118,-1.919,8.802,2.988,-1.921,8.695,-0.15,0.67,-0.572,52.148
'0:01.152',-45.687,1217.062,-19.923,7.956,-7.683,3.106,-1.931,8.778,2.969,-1.97,8.665,-0.145,0.681,-0.547,52.152
'0:01.156',-39.78,1217.263,-20.571,8.207,-7.015,3.131,-1.932,8.754,2.979,-1.98,8.675,-0.155,0.681,-0.561,52.156
'0:01.160',-36.55,1217.657,-20.783,8.353,-6.445,3.155,-1.969,8.741,2.969,-2,8.635,-0.155,0.681,-0.561,52.159
'0:01.164',-19.013,1218.117,-20.972,8.598,-5.476,3.118,-1.968,8.741,2.931,-2.009,8.644,-0.141,0.684,-0.58,52.163
'0:01.168',-31.658,1218.483,-21.24,8.775,-4.507,3.117,-2.004,8.764,2.931,-2.037,8.664,-0.148,0.675,-0.578,52.167
'0:01.172',-30.043,1218.628,-21.617,9.594,-3.698,3.105,-2.015,8.788,2.94,-2.086,8.644,-0.125,0.679,-0.549,52.171
'0:01.176',-37.888,1218.51,-21.958,10.62,-3.044,3.117,-2.039,8.812,2.95,-2.106,8.654,-0.134,0.677,-0.597,52.175
'0:01.180',-49.194,1218.208,-21.971,11.543,-2.781,3.19,-2.1,8.836,3.055,-2.156,8.675,-0.15,0.67,-0.568,52.179
'0:01.184',-49.471,1217.885,-22.282,12.203,-2.124,3.25,-2.186,8.86,3.103,-2.223,8.743,-0.15,0.67,-0.568,52.183
'0:01.188',-33.827,1217.694,-22.778,12.307,-1.716,3.262,-2.233,8.896,3.113,-2.253,8.724,-0.15,0.679,-0.578,52.187
'0:01.191',-49.471,1217.731,-23.559,12.631,-0.816,3.274,-2.257,8.907,3.103,-2.329,8.772,-0.138,0.672,-0.549,52.191
'0:01.195',-37.611,1218.016,-24.184,13.223,0.062,3.286,-2.318,8.858,3.131,-2.358,8.821,-0.136,0.668,-0.593,52.195
'0:01.199',-46.241,1218.504,-24.439,14.207,0.82,3.273,-2.366,8.857,3.122,-2.406,8.82,-0.141,0.666,-0.557,52.199
'0:01.203',-62.947,1219.062,-24.359,14.702,1.657,3.273,-2.33,8.894,3.092,-2.396,8.839,-0.125,0.681,-0.616,52.202
'0:01.207',-65.67,1219.512,-24.958,14.653,2.823,3.163,-2.292,8.845,3.006,-2.385,8.799,-0.141,0.658,-0.603,52.206
'0:01.211',-51.917,1219.69,-25.65,14.183,4.068,3.017,-2.205,8.796,2.958,-2.356,8.769,-0.141,0.658,-0.603,52.21
'0:01.215',-55.932,1219.532,-26.778,13.584,5.742,2.835,-2.118,8.734,2.796,-2.24,8.621,-0.134,0.668,-0.57,52.214
'0:01.219',-45.41,1219.082,-27.178,13.278,6.981,2.726,-1.996,8.735,2.614,-2.053,8.59,-0.145,0.665,-0.572,52.218
'0:01.223',-45.18,1218.436,-27.532,13.303,7.894,2.701,-1.97,8.795,2.536,-2.02,8.696,-0.131,0.674,-0.601,52.222
'0:01.227',-64.839,1217.69,-27.446,13.895,8.299,2.897,-1.983,8.943,2.67,-2.03,8.825,-0.141,0.661,-0.601,52.226
'0:01.230',-52.148,1216.978,-27.095,15.509,7.981,3.201,-2.167,9.138,2.832,-2.089,8.935,-0.113,0.672,-0.58,52.23
'0:01.234',-56.486,1216.413,-26.278,17.171,7.59,3.553,-2.437,9.283,3.263,-2.364,9.126,-0.113,0.672,-0.58,52.234
'0:01.238',-44.903,1216.067,-25.947,18.381,7.704,3.795,-2.694,9.306,3.58,-2.669,9.187,-0.124,0.656,-0.628,52.238
'0:01.242',-13.06,1215.943,-25.871,18.747,8.804,3.878,-2.925,9.279,3.532,-2.795,9.195,-0.136,0.659,-0.586,52.242
'0:01.246',27.366,1216.04,-25.679,18.729,11.001,3.755,-3.055,9.227,3.484,-2.999,9.134,-0.134,0.666,-0.597,52.245
'0:01.250',70.238,1216.322,-25.498,18.472,13.304,3.546,-3.076,9.139,3.445,-3.047,9.123,-0.118,0.663,-0.584,52.249
'0:01.254',101.481,1216.753,-25.044,18.002,15.162,3.326,-3.074,9.002,3.303,-3.087,8.935,-0.125,0.661,-0.622,52.253
'0:01.258',56.209,1217.304,-24.67,17.305,16.428,3.118,-3.059,8.879,3.139,-3.104,8.922,-0.127,0.658,-0.588,52.257
'0:01.262',-1.477,1217.936,-24.24,15.716,16.674,2.947,-3.033,8.816,2.9,-3.073,8.821,-0.127,0.658,-0.588,52.261
'0:01.266',-43.287,1218.584,-23.979,13.999,16.338,2.861,-3.019,8.803,2.766,-3.062,8.731,-0.115,0.663,-0.649,52.265
'0:01.270',-73.192,1219.156,-23.999,12.478,16.145,2.813,-3.006,8.778,2.756,-3.042,8.75,-0.117,0.656,-0.624,52.269
'0:01.273',-95.02,1219.535,-23.999,11.158,15.889,2.837,-2.983,8.755,2.651,-3.003,8.7,-0.113,0.659,-0.595,52.273
'0:01.277',-106.88,1219.677,-23.608,9.172,15.999,2.886,-2.985,8.707,2.68,-3.004,8.652,-0.122,0.654,-0.599,52.277
'0:01.281',-99.358,1219.613,-22.798,8.414,16.241,2.972,-2.962,8.745,2.747,-3.005,8.682,-0.11,0.661,-0.634,52.281
'0:01.285',-93.682,1219.398,-22.169,7.644,16.535,3.07,-2.952,8.783,2.814,-2.995,8.712,-0.11,0.661,-0.634,52.284
'0:01.289',-107.434,1219.099,-21.878,7.143,16.798,3.132,-2.904,8.833,2.948,-2.968,8.744,-0.115,0.652,-0.616,52.288
'0:01.293',-110.941,1218.766,-21.527,6.184,17.359,3.157,-2.869,8.834,2.986,-2.948,8.794,-0.089,0.665,-0.607,52.292
'0:01.297',-105.542,1218.403,-21.309,5.353,18.428,3.084,-2.82,8.786,2.977,-2.909,8.794,-0.108,0.647,-0.645,52.296
'0:01.301',-67.792,1217.983,-20.439,5.212,19.306,2.962,-2.734,8.737,2.814,-2.782,8.714,-0.111,0.651,-0.609,52.3
'0:01.305',-48.641,1217.539,-19.724,5.353,19.967,2.89,-2.65,8.629,2.805,-2.734,8.666,-0.117,0.658,-0.632,52.304
'0:01.309',-60.778,1217.112,-18.917,5.053,20.005,2.817,-2.601,8.58,2.7,-2.675,8.596,-0.099,0.654,-0.603,52.308
'0:01.313',-75.915,1216.739,-18.421,4.033,20.164,2.732,-2.553,8.495,2.595,-2.579,8.449,-0.099,0.654,-0.603,52.312
'0:01.316',-68.9,1216.44,-18.074,3.941,20.206,2.659,-2.504,8.434,2.586,-2.551,8.38,-0.097,0.649,-0.645,52.316
'0:01.320',-65.9,1216.222,-17.551,4.516,20.465,2.647,-2.492,8.446,2.538,-2.541,8.341,-0.101,0.652,-0.618,52.32
'0:01.324',-80.76,1216.053,-17.114,5.072,19.974,2.684,-2.493,8.447,2.538,-2.541,8.389,-0.099,0.656,-0.678,52.324
'0:01.328',-92.897,1215.885,-16.697,5.915,19.6,2.732,-2.529,8.496,2.548,-2.57,8.37,-0.106,0.645,-0.634,52.327
'0:01.332',-92.067,1215.66,-16.572,7.107,19.583,2.78,-2.625,8.531,2.596,-2.58,8.419,-0.097,0.654,-0.607,52.331
'0:01.336',-85.329,1215.398,-16.479,8.567,19.822,2.779,-2.709,8.59,2.643,-2.687,8.458,-0.097,0.654,-0.607,52.335
'0:01.340',-81.545,1215.126,-16.151,9.704,19.984,2.753,-2.816,8.599,2.623,-2.812,8.476,-0.076,0.647,-0.605,52.339
'0:01.344',-64.839,1214.867,-15.735,10.584,20.182,2.692,-2.862,8.658,2.594,-2.85,8.515,-0.087,0.651,-0.655,52.343
'0:01.348',-93.682,1214.638,-15.477,11.518,20.209,2.618,-2.931,8.692,2.468,-2.933,8.639,-0.096,0.643,-0.641,52.347
'0:01.352',-106.603,1214.467,-14.964,12.258,19.777,2.568,-2.953,8.728,2.468,-2.932,8.697,-0.078,0.652,-0.632,52.351
'0:01.355',-113.895,1214.353,-14.557,12.954,18.992,2.556,-3,8.763,2.468,-3,8.677,-0.09,0.638,-0.668,52.355
'0:01.359',-111.495,1214.252,-13.912,12.679,17.784,2.531,-3.037,8.738,2.342,-3.045,8.733,-0.09,0.645,-0.632,52.359
'0:01.363',-98.02,1214.111,-13.617,12.429,17.414,2.47,-3.023,8.725,2.333,-3.036,8.694,-0.09,0.645,-0.632,52.363
'0:01.367',-96.912,1213.909,-13.551,12.178,17.355,2.348,-2.974,8.664,2.247,-2.978,8.615,-0.09,0.647,-0.643,52.367
'0:01.371',-77.53,1213.65,-13.528,12.075,16.864,2.287,-2.888,8.652,2.218,-2.958,8.615,-0.08,0.642,-0.628,52.37
'0:01.375',-81.545,1213.355,-13.657,11.806,16.456,2.239,-2.815,8.689,2.142,-2.88,8.556,-0.087,0.638,-0.668,52.374
'0:01.379',-75.915,1213.055,-13.26,11.824,15.588,2.24,-2.755,8.666,2.18,-2.823,8.547,-0.075,0.64,-0.639,52.378
'0:01.383',-78.868,1212.783,-13.637,12.038,14.885,2.264,-2.744,8.618,2.133,-2.716,8.488,-0.071,0.645,-0.699,52.382
'0:01.387',-80.76,1212.561,-13.485,11.952,14.083,2.252,-2.745,8.569,2.114,-2.784,8.468,-0.071,0.645,-0.699,52.386
'0:01.391',-79.145,1212.403,-13.293,11.91,14.159,2.253,-2.71,8.534,2.095,-2.755,8.458,-0.085,0.636,-0.653,52.39
'0:01.395',-81.268,1212.326,-13.323,12.185,14.2,2.192,-2.648,8.534,2.066,-2.736,8.399,-0.08,0.643,-0.632,52.394
'0:01.398',-89.113,1212.346,-13.29,12.521,14.688,2.144,-2.539,8.523,2.028,-2.677,8.399,-0.062,0.643,-0.626,52.398
'0:01.402',-92.067,1212.481,-13.766,12.368,14.775,2.145,-2.479,8.537,1.999,-2.549,8.468,-0.057,0.649,-0.668,52.402
'0:01.406',-81.822,1212.719,-13.922,12.6,14.788,2.194,-2.455,8.586,2.123,-2.522,8.49,-0.075,0.64,-0.659,52.406
'0:01.410',-51.64,1213.052,-13.73,13.358,14.052,2.291,-2.539,8.695,2.075,-2.51,8.548,-0.059,0.645,-0.659,52.409
'0:01.414',-36.78,1213.445,-13.485,13.981,13.18,2.449,-2.661,8.816,2.256,-2.656,8.715,-0.059,0.645,-0.659,52.413
'0:01.418',-39.226,1213.872,-13.402,14.177,12.512,2.606,-2.891,8.875,2.352,-2.773,8.765,-0.069,0.631,-0.682,52.417
'0:01.422',-39.226,1214.312,-13.207,14.458,12.277,2.701,-3.11,8.896,2.505,-3.047,8.795,-0.071,0.645,-0.651,52.421
'0:01.426',-31.658,1214.77,-12.876,14.592,12.101,2.736,-3.302,8.905,2.534,-3.153,8.833,-0.073,0.647,-0.67,52.425
'0:01.430',-37.334,1215.243,-12.367,14.568,12.291,2.649,-3.445,8.901,2.495,-3.405,8.831,-0.059,0.642,-0.678,52.429
'0:01.434',-52.702,1215.701,-11.864,14.311,12.855,2.501,-3.526,8.874,2.37,-3.54,8.779,-0.066,0.636,-0.682,52.433
'0:01.438',-52.148,1216.077,-11.639,13.731,12.952,2.317,-3.56,8.774,2.313,-3.599,8.709,-0.066,0.636,-0.655,52.437
'0:01.441',-52.979,1216.319,-10.961,11.659,12.54,2.17,-3.546,8.675,2.054,-3.557,8.617,-0.043,0.638,-0.655,52.441
'0:01.445',-64.285,1216.42,-10.454,10.504,11.623,2.085,-3.509,8.614,1.988,-3.557,8.538,-0.05,0.642,-0.714,52.445
'0:01.449',-86.39,1216.42,-9.74,8.701,10.53,2.061,-3.473,8.59,1.988,-3.461,8.509,-0.057,0.635,-0.67,52.449
'0:01.453',-99.866,1216.363,-9.462,7.217,9.333,2.073,-3.473,8.602,1.959,-3.5,8.489,-0.059,0.642,-0.662,52.452
'0:01.457',-98.527,1216.295,-9.108,6.373,8.738,2.085,-3.438,8.567,1.93,-3.528,8.517,-0.043,0.638,-0.645,52.456
'0:01.461',-69.408,1216.242,-8.959,5.616,8.531,2.098,-3.391,8.532,1.901,-3.479,8.508,-0.05,0.64,-0.687,52.46
'0:01.465',-82.883,1216.178,-8.278,5.096,8.344,2.087,-3.319,8.521,1.93,-3.412,8.499,-0.05,0.64,-0.687,52.464
'0:01.469',-87.775,1216.057,-7.662,5.298,7.96,2.075,-3.246,8.546,1.95,-3.315,8.5,-0.055,0.631,-0.67,52.468
'0:01.473',-83.16,1215.882,-7.235,5.102,7.389,2.063,-3.233,8.558,1.94,-3.304,8.539,-0.04,0.642,-0.71,52.472
'0:01.477',-96.128,1215.69,-6.696,5.102,7.316,2.039,-3.185,8.522,1.959,-3.218,8.491,-0.062,0.626,-0.695,52.476
'0:01.480',-98.251,1215.536,-6.435,5.163,7.282,1.978,-3.161,8.462,1.882,-3.208,8.471,-0.054,0.636,-0.662,52.48
'0:01.484',-98.02,1215.432,-5.8,4.693,6.801,1.942,-3.172,8.461,1.863,-3.227,8.45,-0.057,0.64,-0.676,52.484
'0:01.488',-90.451,1215.371,-4.8,5.115,6.683,1.941,-3.196,8.484,1.845,-3.198,8.401,-0.057,0.642,-0.699,52.488
'0:01.492',-101.481,1215.341,-4.182,5.396,6.303,1.965,-3.233,8.484,1.854,-3.238,8.401,-0.047,0.642,-0.699,52.492
'0:01.496',-94.512,1215.301,-3.527,5.133,5.448,2.051,-3.246,8.509,1.95,-3.277,8.471,-0.059,0.631,-0.697,52.495
'0:01.500',-110.664,1215.217,-3.04,5.078,4.611,2.16,-3.321,8.522,1.978,-3.276,8.52,-0.036,0.638,-0.664,52.499
'0:01.504',-96.358,1215.052,-2.597,5.286,4.341,2.208,-3.382,8.509,2.075,-3.386,8.453,-0.045,0.638,-0.712,52.503
'0:01.508',-108.496,1214.823,-1.717,5.371,4.431,2.258,-3.383,8.498,2.104,-3.406,8.453,-0.052,0.626,-0.672,52.507
'0:01.512',-103.373,1214.541,-0.635,5.145,3.94,2.27,-3.383,8.546,2.113,-3.454,8.492,-0.057,0.642,-0.682,52.511
'0:01.516',-78.314,1214.215,0.04,4.644,3.549,2.319,-3.334,8.621,2.18,-3.386,8.533,-0.057,0.642,-0.682,52.515
'0:01.520',-77.253,1213.862,0.576,4.296,3.577,2.307,-3.309,8.669,2.18,-3.376,8.572,-0.043,0.631,-0.659,52.519
'0:01.523',-63.501,1213.539,1.277,4.015,3.276,2.284,-3.237,8.646,2.18,-3.327,8.602,-0.038,0.631,-0.695,52.523
'0:01.527',-61.055,1213.311,1.949,3.324,3.29,2.284,-3.19,8.598,2.132,-3.248,8.592,-0.05,0.627,-0.664,52.527
'0:01.531',-56.486,1213.2,2.617,2.609,2.812,2.285,-3.154,8.599,2.113,-3.22,8.552,-0.036,0.64,-0.728,52.531
'0:01.535',-45.41,1213.213,3.064,1.852,2.463,2.272,-3.141,8.599,2.151,-3.22,8.543,-0.045,0.631,-0.68,52.534
'0:01.539',-42.457,1213.338,3.894,1.797,2.605,2.309,-3.143,8.575,2.161,-3.211,8.553,-0.043,0.638,-0.662,52.538
'0:01.543',-30.043,1213.516,4.397,1.968,2.653,2.345,-3.216,8.538,2.209,-3.28,8.515,-0.043,0.638,-0.662,52.542
'0:01.547',-45.687,1213.687,5.422,2.218,2.878,2.394,-3.265,8.586,2.19,-3.259,8.583,-0.05,0.636,-0.668,52.546
'0:01.551',-25.751,1213.812,6.23,2.261,3.203,2.406,-3.253,8.55,2.219,-3.309,8.534,-0.034,0.642,-0.695,52.55
'0:01.555',32.212,1213.876,6.531,2.573,3.899,2.357,-3.242,8.465,2.2,-3.31,8.485,-0.052,0.633,-0.689,52.554
'0:01.559',174.58,1213.865,6.676,2.169,4.919,2.309,-3.182,8.417,2.21,-3.301,8.427,-0.029,0.636,-0.664,52.558
'0:01.563',355.991,1213.788,7.037,1.558,5.549,2.26,-3.157,8.417,2.114,-3.223,8.367,-0.038,0.624,-0.71,52.562
'0:01.566',515.065,1213.657,7.808,1.198,5.725,2.248,-3.143,8.466,2.095,-3.223,8.367,-0.038,0.624,-0.71,52.566
'0:01.570',531.771,1213.496,8.082,1.247,6.32,2.272,-3.155,8.49,2.152,-3.183,8.456,-0.05,0.631,-0.662,52.57
'0:01.574',313.119,1213.351,8.271,1.161,6.517,2.308,-3.192,8.514,2.143,-3.222,8.436,-0.05,0.64,-0.68,52.574
'0:01.578',29.258,1213.247,8.684,0.519,6.458,2.394,-3.253,8.538,2.229,-3.271,8.505,-0.036,0.642,-0.657,52.577
'0:01.582',-260.002,1213.18,9.164,-0.385,6.957,2.454,-3.315,8.562,2.257,-3.349,8.515,-0.043,0.633,-0.689,52.581
'0:01.586',-636.113,1213.133,9.498,-0.642,6.967,2.515,-3.351,8.586,2.315,-3.37,8.506,-0.045,0.636,-0.653,52.585
'0:01.590',-908.113,1213.079,10.134,-1.467,8.261,2.478,-3.362,8.598,2.324,-3.388,8.545,-0.033,0.643,-0.718,52.589
'0:01.594',-966.353,1212.988,10.382,-2.591,9.025,2.43,-3.325,8.622,2.296,-3.359,8.545,-0.033,0.643,-0.718,52.593
'0:01.598',-870.133,1212.861,10.822,-3.465,9.966,2.32,-3.287,8.597,2.21,-3.33,8.455,-0.047,0.635,-0.687,52.597
'0:01.602',-702.152,1212.723,10.977,-3.782,10.751,2.296,-3.191,8.538,2.229,-3.253,8.437,-0.04,0.649,-0.649,52.601
'0:01.605',-523.695,1212.582,11.715,-5.463,11.239,2.297,-3.132,8.491,2.181,-3.232,8.465,-0.048,0.645,-0.659,52.605
'0:01.609',-316.349,1212.464,12.013,-6.508,11.125,2.334,-3.108,8.54,2.229,-3.165,8.477,-0.034,0.647,-0.685,52.609
'0:01.613',-136.554,1212.39,11.907,-7.174,11.367,2.359,-3.06,8.578,2.219,-3.135,8.486,-0.045,0.636,-0.68,52.613
'0:01.617',-57.547,1212.346,12.191,-7.675,12.063,2.359,-3.035,8.59,2.21,-3.057,8.506,-0.045,0.636,-0.68,52.617
'0:01.621',-23.305,1212.282,12.367,-8.066,12.786,2.347,-2.999,8.566,2.2,-3.067,8.496,-0.026,0.645,-0.664,52.62
'0:01.625',-7.43,1212.148,12.754,-8.885,13.021,2.323,-3.011,8.59,2.2,-3.028,8.516,-0.038,0.631,-0.701,52.624
'0:01.629',12.276,1211.93,13.144,-9.245,13.391,2.299,-2.973,8.639,2.142,-2.987,8.574,-0.048,0.638,-0.649,52.628
'0:01.633',41.118,1211.661,13.194,-9.368,13.913,2.286,-2.972,8.675,2.151,-2.977,8.594,-0.052,0.649,-0.668,52.632
'0:01.637',41.672,1211.412,13.673,-9.264,14.394,2.286,-2.971,8.699,2.141,-2.977,8.594,-0.033,0.645,-0.651,52.636
'0:01.641',46.241,1211.254,14.051,-9.447,14.775,2.275,-2.935,8.712,2.141,-2.966,8.643,-0.04,0.642,-0.676,52.64
'0:01.645',43.287,1211.227,14.08,-9.728,14.747,2.262,-2.946,8.723,2.112,-2.917,8.653,-0.04,0.642,-0.676,52.644
'0:01.648',72.915,1211.321,14.113,-9.856,15.01,2.274,-2.959,8.711,2.113,-2.956,8.603,-0.045,0.64,-0.651,52.648
'0:01.652',84.498,1211.476,14.233,-9.887,15.072,2.274,-2.947,8.687,2.113,-2.985,8.613,-0.036,0.649,-0.712,52.652
'0:01.656',90.174,1211.62,14.127,-10.339,14.785,2.311,-2.924,8.7,2.151,-2.996,8.623,-0.045,0.633,-0.676,52.656
'0:01.660',83.16,1211.718,14.239,-10.559,14.972,2.287,-2.935,8.748,2.17,-3.006,8.574,-0.038,0.651,-0.641,52.659
'0:01.664',78.314,1211.748,13.958,-10.626,15.363,2.25,-2.922,8.748,2.102,-3.003,8.691,-0.047,0.649,-0.647,52.663
'0:01.668',102.035,1211.725,14.193,-10.119,15.536,2.225,-2.933,8.784,2.121,-2.984,8.691,-0.047,0.649,-0.647,52.667
'0:01.672',111.218,1211.661,14.19,-10.425,15.034,2.225,-2.944,8.795,2.141,-2.936,8.692,-0.036,0.652,-0.672,52.671
'0:01.676',121.186,1211.543,13.842,-10.553,14.671,2.25,-2.944,8.832,2.111,-2.972,8.818,-0.04,0.643,-0.655,52.675
'0:01.680',119.017,1211.358,13.723,-10.327,14.577,2.213,-2.955,8.843,2.073,-3.011,8.768,-0.022,0.651,-0.653,52.679
'0:01.684',113.11,1211.079,13.581,-10.223,14.965,2.176,-2.966,8.867,2.015,-3,8.787,-0.038,0.638,-0.682,52.683
'0:01.688',116.618,1210.686,13.624,-10.516,15.013,2.127,-2.953,8.867,2.015,-2.99,8.797,-0.048,0.642,-0.643,52.687
'0:01.691',123.863,1210.205,13.326,-10.694,14.574,2.115,-2.915,8.94,1.966,-2.92,8.865,-0.043,0.654,-0.653,52.691
'0:01.695',135.723,1209.681,12.936,-10.92,14.169,2.128,-2.89,9.001,2.033,-2.9,8.954,-0.043,0.654,-0.653,52.695
'0:01.699',136.554,1209.157,12.691,-10.84,13.91,2.165,-2.855,9.002,1.995,-2.9,8.914,-0.029,0.654,-0.641,52.699
'0:01.703',130.878,1208.676,12.353,-10.907,13.657,2.178,-2.819,9.003,2.062,-2.883,8.857,-0.036,0.642,-0.668,52.702
'0:01.707',146.799,1208.29,11.973,-10.718,13.308,2.178,-2.759,9.004,2.072,-2.833,8.916,-0.045,0.651,-0.649,52.706
'0:01.711',151.645,1208.017,11.566,-10.7,13.529,2.166,-2.711,8.956,2.004,-2.774,8.915,-0.027,0.652,-0.703,52.71
'0:01.715',181.318,1207.873,10.918,-10.235,13.609,2.118,-2.651,8.92,1.966,-2.764,8.915,-0.047,0.645,-0.662,52.714
'0:01.719',169.689,1207.849,10.487,-9.997,13.415,2.131,-2.627,8.957,1.937,-2.696,8.876,-0.047,0.645,-0.662,52.718
'0:01.723',165.951,1207.859,10.345,-9.416,12.917,2.167,-2.638,9.03,2.081,-2.667,8.976,-0.031,0.658,-0.639,52.722
'0:01.727',178.595,1207.745,9.789,-8.579,12.132,2.228,-2.651,9.079,2.081,-2.706,8.976,-0.033,0.654,-0.634,52.726
'0:01.730',179.934,1207.359,9.465,-7.754,11.647,2.276,-2.736,9.09,2.119,-2.706,9.015,-0.043,0.643,-0.672,52.73
'0:01.734',194.517,1206.659,8.976,-6.984,11.353,2.251,-2.759,9.09,2.148,-2.706,9.026,-0.036,0.659,-0.637,52.734
'0:01.738',217.96,1205.755,8.35,-6.642,11.052,2.215,-2.771,9.077,2.1,-2.792,9.054,-0.04,0.661,-0.647,52.738
'0:01.742',214.176,1204.845,7.742,-6.251,10.703,2.129,-2.805,9.051,2.052,-2.871,8.974,-0.034,0.665,-0.664,52.742
'0:01.746',225.529,1204.108,7.47,-5.781,10.686,2.03,-2.851,9.036,1.966,-2.88,8.943,-0.034,0.665,-0.664,52.745
'0:01.750',256.771,1203.675,6.835,-5.426,10.278,1.956,-2.861,9.059,1.821,-2.916,8.95,-0.038,0.651,-0.664,52.749
'0:01.754',271.077,1203.604,6.461,-5.261,10.067,1.932,-2.884,9.071,1.841,-2.945,8.95,-0.017,0.659,-0.634,52.753
'0:01.758',282.107,1203.914,6.279,-5.121,9.191,1.931,-2.92,9.095,1.83,-2.944,9.019,-0.027,0.658,-0.687,52.757
'0:01.762',280.768,1204.572,5.76,-4.992,8.337,2.005,-2.921,9.095,1.878,-2.935,9.019,-0.043,0.654,-0.645,52.761
'0:01.766',305.32,1205.51,5.406,-4.65,7.818,2.078,-2.971,9.096,1.926,-2.994,9.03,-0.036,0.663,-0.645,52.765
'0:01.770',316.626,1206.612,5.409,-4.546,7.199,2.151,-2.997,9.084,1.985,-2.996,8.972,-0.036,0.663,-0.645,52.769
'0:01.773',331.993,1207.748,4.685,-4.247,6.455,2.2,-3.022,9.072,2.033,-2.987,8.992,-0.029,0.659,-0.626,52.773
'0:01.777',361.667,1208.824,4.572,-4.161,6.272,2.212,-3.023,9.072,2.061,-3.026,8.983,-0.024,0.663,-0.666,52.777
'0:01.781',376.758,1209.839,4.169,-4.027,6.106,2.175,-3.023,9.035,2.033,-3.056,8.943,-0.038,0.651,-0.634,52.781
'0:01.785',399.14,1210.817,4.046,-4.461,5.5,2.2,-2.987,9.024,2.081,-3.027,8.973,-0.022,0.661,-0.678,52.784
'0:01.789',425.029,1211.772,3.881,-4.809,4.878,2.188,-2.963,9.025,2.033,-3.046,8.953,-0.041,0.651,-0.664,52.788
'0:01.793',440.904,1212.706,3.811,-5.39,4.442,2.164,-2.94,8.964,2.062,-2.988,8.963,-0.034,0.659,-0.632,52.792
'0:01.797',473.255,1213.623,3.732,-6.043,3.944,2.165,-2.892,8.941,2.062,-2.941,8.857,-0.034,0.659,-0.632,52.796
'0:01.801',488.899,1214.511,3.59,-6.587,3.203,2.214,-2.87,8.906,2.062,-2.912,8.866,-0.024,0.665,-0.655,52.8
'0:01.805',494.298,1215.361,3.633,-7.272,2.089,2.251,-2.859,8.906,2.101,-2.883,8.887,-0.036,0.649,-0.659,52.804
'0:01.809',503.205,1216.215,3.659,-7.143,1.287,2.312,-2.848,8.907,2.101,-2.883,8.877,-0.043,0.659,-0.637,52.808
'0:01.813',503.205,1217.156,3.808,-7.119,1.1,2.348,-2.885,8.895,2.207,-2.906,8.791,-0.048,0.666,-0.649,52.812
'0:01.816',504.82,1218.221,3.831,-6.936,0.944,2.361,-2.873,8.908,2.207,-2.915,8.81,-0.029,0.665,-0.616,52.816
'0:01.820',505.374,1219.391,3.824,-7.253,0.502,2.323,-2.921,8.882,2.187,-2.923,8.898,-0.029,0.665,-0.616,52.82
'0:01.824',523.695,1220.567,4.387,-7.223,-0.076,2.299,-2.956,8.881,2.159,-2.972,8.829,-0.036,0.659,-0.655,52.824
'0:01.828',529.325,1221.623,4.711,-7.235,-0.405,2.262,-2.968,8.856,2.13,-2.982,8.828,-0.031,0.659,-0.632,52.827
'0:01.832',546.077,1222.446,4.9,-7.351,-0.806,2.224,-3.04,8.818,2.14,-3.041,8.789,-0.034,0.67,-0.689,52.831
'0:01.836',535.832,1223.021,5.403,-7.589,-1.318,2.211,-3.087,8.829,2.092,-3.07,8.749,-0.041,0.656,-0.643,52.835
'0:01.840',507.774,1223.394,5.7,-7.712,-1.782,2.138,-3.11,8.815,2.054,-3.118,8.718,-0.041,0.665,-0.611,52.839
'0:01.844',493.514,1223.633,6.17,-7.73,-1.975,2.076,-3.122,8.766,1.996,-3.165,8.736,-0.036,0.659,-0.614,52.843
'0:01.848',463.286,1223.723,6.799,-8.139,-2.349,2.076,-3.134,8.742,1.996,-3.165,8.785,-0.036,0.659,-0.614,52.847
'0:01.852',415.292,1223.579,7.311,-8.897,-3.376,2.089,-3.134,8.778,2.006,-3.156,8.756,-0.034,0.665,-0.655,52.851
'0:01.855',375.927,1223.105,7.708,-9.588,-4.525,2.125,-3.146,8.803,2.035,-3.195,8.727,-0.041,0.658,-0.643,52.855
'0:01.859',332.824,1222.251,8.105,-9.691,-5.085,2.149,-3.171,8.778,2.006,-3.225,8.707,-0.027,0.666,-0.664,52.859
'0:01.863',284.553,1221.045,8.585,-9.704,-5.476,2.112,-3.195,8.753,1.987,-3.196,8.677,-0.043,0.652,-0.655,52.863
'0:01.867',220.683,1219.576,9.584,-9.893,-5.874,2.076,-3.182,8.753,1.949,-3.196,8.618,-0.031,0.654,-0.659,52.867
'0:01.871',188.056,1217.959,10.368,-10.425,-6.282,2.051,-3.181,8.753,1.949,-3.215,8.637,-0.031,0.654,-0.659,52.87
'0:01.875',148.691,1216.272,10.848,-10.761,-6.946,2.039,-3.17,8.716,1.929,-3.194,8.715,-0.036,0.666,-0.651,52.874
'0:01.879',107.157,1214.554,11.841,-11.158,-7.555,2.016,-3.099,8.632,1.881,-3.137,8.637,-0.022,0.659,-0.668,52.878
'0:01.883',75.361,1212.894,12.41,-11.69,-8.496,2.041,-3.04,8.598,1.882,-3.117,8.618,-0.055,0.663,-0.622,52.882
'0:01.887',41.672,1211.446,12.896,-12.441,-9.309,2.091,-2.969,8.575,1.959,-3.023,8.522,-0.054,0.663,-0.634,52.886
'0:01.891',23.582,1210.35,13.498,-12.985,-10.278,2.116,-2.886,8.553,1.988,-2.937,8.484,-0.047,0.661,-0.607,52.89
'0:01.895',-13.614,1209.671,13.796,-13.352,-11.291,2.166,-2.804,8.519,2.008,-2.91,8.416,-0.047,0.672,-0.647,52.894
'0:01.898',-20.628,1209.345,14.415,-13.834,-12.312,2.203,-2.745,8.508,2.027,-2.871,8.456,-0.047,0.672,-0.647,52.898
'0:01.902',-37.057,1209.224,15.046,-14.25,-12.962,2.253,-2.698,8.51,2.123,-2.833,8.468,-0.062,0.661,-0.62,52.902
'0:01.906',-56.763,1209.184,15.553,-14.47,-13.844,2.302,-2.663,8.523,2.21,-2.688,8.5,-0.047,0.663,-0.664,52.906
'0:01.910',-59.163,1209.15,16.29,-14.794,-15.11,2.376,-2.64,8.525,2.219,-2.718,8.509,-0.064,0.656,-0.647,52.909
'0:01.914',-62.947,1209.089,16.714,-14.757,-15.902,2.425,-2.665,8.537,2.277,-2.68,8.511,-0.054,0.665,-0.614,52.913
'0:01.918',-68.346,1208.992,17.091,-14.861,-16.968,2.486,-2.63,8.563,2.345,-2.671,8.522,-0.059,0.663,-0.614,52.917
'0:01.922',-83.437,1208.881,17.802,-14.922,-17.687,2.535,-2.642,8.612,2.383,-2.701,8.483,-0.059,0.663,-0.614,52.921
'0:01.926',-88.282,1208.76,18.067,-14.183,-18.653,2.559,-2.655,8.6,2.421,-2.672,8.533,-0.057,0.675,-0.634,52.925
'0:01.930',-77.53,1208.619,18.808,-13.804,-18.825,2.572,-2.631,8.612,2.431,-2.671,8.572,-0.064,0.666,-0.63,52.929
'0:01.934',-81.268,1208.498,19.04,-13.792,-19.4,2.572,-2.654,8.66,2.45,-2.682,8.533,-0.036,0.668,-0.655,52.933
'0:01.938',-98.527,1208.478,19.949,-13.645,-20.462,2.571,-2.666,8.696,2.43,-2.641,8.65,-0.045,0.661,-0.685,52.937
'0:01.941',-95.851,1208.612,20.35,-13.437,-20.517,2.559,-2.653,8.733,2.391,-2.659,8.669,-0.061,0.659,-0.649,52.941
'0:01.945',-88.559,1208.868,20.757,-13.773,-20.718,2.523,-2.628,8.745,2.401,-2.669,8.64,-0.078,0.67,-0.611,52.945
'0:01.949',-96.358,1209.18,21.312,-13.779,-20.821,2.486,-2.626,8.769,2.372,-2.649,8.649,-0.078,0.67,-0.611,52.949
'0:01.953',-97.743,1209.476,21.997,-13.767,-21.032,2.486,-2.614,8.781,2.353,-2.668,8.649,-0.066,0.675,-0.584,52.952
'0:01.957',-96.358,1209.728,22.252,-14.152,-21.23,2.487,-2.578,8.794,2.372,-2.659,8.669,-0.076,0.672,-0.626,52.956
'0:01.961',-93.959,1209.94,22.613,-14.855,-21.69,2.523,-2.567,8.782,2.382,-2.62,8.65,-0.082,0.668,-0.599,52.96
'0:01.965',-88.559,1210.172,23.039,-15.594,-21.977,2.548,-2.531,8.795,2.429,-2.571,8.749,-0.071,0.682,-0.649,52.964
'0:01.969',-97.743,1210.451,23.132,-15.839,-21.991,2.561,-2.507,8.784,2.429,-2.542,8.729,-0.087,0.668,-0.609,52.968
'0:01.973',-98.02,1210.763,23.546,-15.936,-22.274,2.586,-2.448,8.785,2.41,-2.522,8.739,-0.087,0.668,-0.609,52.972
'0:01.977',-94.743,1211.072,23.84,-16.034,-21.8,2.635,-2.413,8.775,2.468,-2.465,8.721,-0.08,0.682,-0.586,52.976
'0:01.980',-92.343,1211.351,24.032,-16.48,-21.949,2.648,-2.366,8.764,2.478,-2.427,8.711,-0.078,0.675,-0.593,52.98
'0:01.984',-103.927,1211.607,23.86,-17.256,-21.859,2.673,-2.307,8.741,2.574,-2.361,8.684,-0.076,0.668,-0.657,52.984
'0:01.988',-98.02,1211.842,23.724,-17.794,-21.897,2.71,-2.272,8.718,2.545,-2.38,8.684,-0.076,0.663,-0.637,52.988
'0:01.992',-99.081,1212.047,23.595,-17.855,-21.787,2.711,-2.224,8.718,2.604,-2.334,8.597,-0.097,0.686,-0.591,52.992
'0:01.996',-109.88,1212.208,23.241,-18.002,-21.731,2.76,-2.177,8.732,2.604,-2.316,8.539,-0.09,0.686,-0.572,52.995
'0:02.000',-105.265,1212.306,22.758,-18.313,-21.288,2.822,-2.141,8.77,2.661,-2.245,8.716,-0.09,0.686,-0.572,52.999
'0:02.004',-102.865,1212.245,22.014,-18.387,-21.074,2.847,-2.068,8.844,2.67,-2.187,8.736,-0.104,0.681,-0.603,53.003
'0:02.008',-100.143,1211.896,21.418,-18.13,-20.517,2.872,-2.069,8.869,2.719,-2.139,8.718,-0.082,0.682,-0.57,53.007
'0:02.012',-100.419,1211.167,20.518,-17.611,-19.953,2.872,-2.044,8.918,2.728,-2.09,8.777,-0.094,0.682,-0.618,53.011
'0:02.016',-108.265,1210.088,19.748,-17.055,-19.241,2.909,-2.019,8.979,2.776,-2.091,8.758,-0.108,0.675,-0.578,53.015
'0:02.020',-102.312,1208.811,19.129,-16.389,-18.258,2.909,-2.031,9.003,2.776,-2.091,8.778,-0.11,0.691,-0.576,53.019
'0:02.023',-117.125,1207.564,18.113,-16.059,-17.213,2.958,-2.019,9.065,2.795,-2.1,8.827,-0.11,0.691,-0.547,53.023
'0:02.027',-116.618,1206.572,17.303,-15.509,-16.072,2.982,-2.019,9.101,2.794,-2.069,8.895,-0.099,0.686,-0.547,53.027
'0:02.031',-102.312,1205.984,16.218,-15.185,-15.442,3.043,-2.007,9.163,2.812,-2.087,9.022,-0.101,0.695,-0.588,53.031
'0:02.035',-109.049,1205.843,15.053,-14.879,-14.813,3.043,-2.03,9.174,2.87,-2.068,9.033,-0.111,0.681,-0.563,53.034
'0:02.039',-115.787,1206.132,13.64,-14.702,-13.792,3.105,-1.995,9.2,2.928,-2.061,8.937,-0.097,0.689,-0.58,53.038
'0:02.043',-113.895,1206.757,12.506,-14.36,-12.872,3.166,-1.985,9.213,2.986,-2.062,8.938,-0.104,0.686,-0.553,53.042
'0:02.047',-132.216,1207.59,11.232,-14.488,-11.91,3.203,-1.96,9.275,3.004,-2,9.143,-0.11,0.693,-0.549,53.046
'0:02.051',-135.216,1208.505,10.246,-14.207,-11.481,3.203,-1.935,9.348,3.071,-1.982,9.135,-0.11,0.693,-0.549,53.05
'0:02.055',-140.615,1209.432,8.866,-13.859,-10.495,3.216,-1.911,9.336,3.003,-1.96,9.212,-0.106,0.691,-0.555,53.054
'0:02.059',-146.245,1210.353,7.566,-13.223,-9.589,3.204,-1.874,9.385,3.032,-1.95,9.271,-0.094,0.679,-0.63,53.058
'0:02.063',-144.63,1211.288,6.646,-12.777,-8.659,3.192,-1.861,9.41,3.003,-1.939,9.271,-0.127,0.689,-0.542,53.062
'0:02.066',-148.691,1212.205,5.403,-12.857,-8.237,3.143,-1.86,9.433,2.955,-1.91,9.251,-0.103,0.698,-0.553,53.066
'0:02.070',-152.475,1213.022,4.321,-12.484,-7.455,3.082,-1.835,9.421,2.955,-1.929,9.251,-0.132,0.682,-0.555,53.07
'0:02.074',-156.213,1213.671,3.305,-11.958,-6.998,3.009,-1.82,9.432,2.887,-1.83,9.289,-0.132,0.681,-0.576,53.074
'0:02.078',-175.088,1214.188,2.127,-11.531,-6.386,2.959,-1.843,9.431,2.82,-1.916,9.327,-0.127,0.681,-0.576,53.077
'0:02.082',-173.473,1214.659,1.082,-11.61,-6.03,2.911,-1.818,9.443,2.762,-1.896,9.296,-0.12,0.686,-0.555,53.081
'0:02.086',-180.487,1215.133,-0.245,-10.987,-6.061,2.886,-1.842,9.43,2.743,-1.896,9.296,-0.117,0.695,-0.614,53.085
'0:02.090',-171.073,1215.596,-1.476,-10.779,-6.151,2.874,-1.854,9.429,2.772,-1.886,9.306,-0.125,0.684,-0.57,53.089
'0:02.094',-173.473,1216.047,-2.501,-9.997,-5.867,2.836,-1.877,9.416,2.715,-1.926,9.237,-0.129,0.688,-0.538,53.093
'0:02.098',-173.473,1216.464,-4.003,-8.97,-5.736,2.824,-1.877,9.392,2.686,-1.896,9.246,-0.117,0.689,-0.545,53.097
'0:02.102',-155.429,1216.82,-6.021,-6.453,-5.981,2.812,-1.878,9.343,2.696,-1.945,9.217,-0.117,0.689,-0.545,53.101
'0:02.105',-148.968,1217.075,-7.242,-5.39,-6.05,2.812,-1.867,9.283,2.648,-1.887,9.158,-0.124,0.693,-0.582,53.105
'0:02.109',-156.213,1217.223,-8.443,-3.917,-6.438,2.849,-1.844,9.284,2.686,-1.897,9.178,-0.131,0.679,-0.563,53.109
'0:02.113',-156.213,1217.284,-9.402,-2.463,-6.794,2.837,-1.843,9.284,2.716,-1.928,9.12,-0.115,0.686,-0.572,53.113
'0:02.117',-169.689,1217.3,-10.841,-0.409,-6.69,2.85,-1.82,9.248,2.696,-1.917,9.149,-0.127,0.675,-0.576,53.117
'0:02.121',-167.843,1217.267,-12.105,1.265,-6.784,2.837,-1.845,9.223,2.667,-1.917,9.119,-0.129,0.681,-0.553,53.12
'0:02.125',-164.335,1217.156,-13.276,3.202,-6.87,2.813,-1.832,9.223,2.668,-1.898,9.1,-0.141,0.693,-0.568,53.124
'0:02.129',-158.659,1217.005,-14.024,4.497,-7.168,2.788,-1.832,9.187,2.62,-1.879,9.04,-0.141,0.693,-0.568,53.128
'0:02.133',-157.828,1216.911,-15.275,6.08,-7.783,2.789,-1.82,9.199,2.649,-1.821,9.051,-0.12,0.689,-0.58,53.132
'0:02.137',-167.566,1216.968,-16.403,7.369,-8.15,2.776,-1.809,9.138,2.63,-1.823,8.963,-0.134,0.675,-0.584,53.136
'0:02.141',-148.414,1217.173,-17.468,8.5,-8.762,2.764,-1.809,9.138,2.63,-1.861,9.002,-0.11,0.677,-0.553,53.14
'0:02.145',-178.595,1217.442,-18.312,9.862,-9.288,2.776,-1.821,9.102,2.602,-1.823,8.923,-0.124,0.682,-0.614,53.144
'0:02.148',-174.304,1217.707,-18.987,11.616,-9.824,2.813,-1.859,9.065,2.659,-1.9,8.992,-0.127,0.675,-0.572,53.148
'0:02.152',-158.936,1217.949,-19.744,13.229,-10.233,2.886,-1.897,9.041,2.707,-1.863,8.954,-0.127,0.675,-0.572,53.152
'0:02.156',-152.706,1218.164,-20.542,14.806,-10.734,2.922,-1.959,9.017,2.727,-1.922,8.905,-0.131,0.681,-0.578,53.156
'0:02.160',-147.353,1218.305,-21.064,15.808,-10.956,2.958,-2.007,9.028,2.804,-2.031,8.896,-0.122,0.677,-0.553,53.159
'0:02.164',-144.353,1218.278,-21.604,17.055,-11.163,2.958,-2.043,9.04,2.784,-2.06,8.885,-0.111,0.674,-0.632,53.163
'0:02.168',-126.586,1217.989,-22.083,18.258,-11.308,2.933,-2.092,8.99,2.756,-2.108,8.875,-0.125,0.668,-0.572,53.167
'0:02.172',-128.201,1217.421,-22.563,18.906,-10.942,2.908,-2.128,8.941,2.747,-2.147,8.835,-0.117,0.674,-0.593,53.171
'0:02.176',-134.939,1216.638,-22.613,19.303,-11.163,2.883,-2.164,8.892,2.727,-2.196,8.825,-0.118,0.684,-0.599,53.175
'0:02.180',-127.37,1215.801,-23.049,19.731,-11.53,2.858,-2.176,8.879,2.68,-2.245,8.765,-0.118,0.684,-0.599,53.179
'0:02.184',-126.309,1215.082,-23.125,19.853,-11.575,2.87,-2.189,8.83,2.68,-2.264,8.765,-0.125,0.674,-0.584,53.183
'0:02.188',-112.28,1214.615,-23.595,19.804,-11.613,2.87,-2.19,8.794,2.699,-2.255,8.726,-0.125,0.674,-0.584,53.187
'0:02.191',-114.172,1214.45,-23.714,19.707,-11.993,2.858,-2.214,8.769,2.757,-2.286,8.688,-0.127,0.675,-0.574,53.191
'0:02.195',-102.588,1214.558,-24.323,18.955,-12.018,2.895,-2.216,8.745,2.748,-2.278,8.62,-0.127,0.666,-0.611,53.195
'0:02.199',-92.897,1214.83,-24.608,18.063,-12.125,2.907,-2.229,8.697,2.729,-2.317,8.57,-0.101,0.672,-0.561,53.199
'0:02.203',-92.343,1215.109,-24.793,17.892,-12.118,2.907,-2.266,8.648,2.759,-2.329,8.483,-0.101,0.672,-0.561,53.202
'0:02.207',-95.574,1215.22,-25.14,17.073,-11.872,2.894,-2.266,8.623,2.739,-2.329,8.482,-0.113,0.666,-0.622,53.206
'0:02.211',-98.02,1215.089,-25.094,16.37,-11.326,2.87,-2.29,8.574,2.72,-2.338,8.482,-0.129,0.661,-0.578,53.21
'0:02.215',-86.113,1214.793,-25.23,15.643,-11.08,2.87,-2.267,8.551,2.672,-2.357,8.452,-0.124,0.672,-0.599,53.214
'0:02.219',-76.145,1214.494,-25.435,15.05,-10.364,2.882,-2.316,8.501,2.731,-2.379,8.394,-0.113,0.665,-0.582,53.218
'0:02.223',-59.993,1214.312,-25.511,14.794,-10.08,2.967,-2.329,8.539,2.778,-2.368,8.483,-0.118,0.663,-0.62,53.222
'0:02.227',-33.273,1214.252,-25.388,14.641,-10.049,3.028,-2.402,8.562,2.922,-2.399,8.504,-0.122,0.659,-0.591,53.226
'0:02.230',-20.628,1214.265,-25.359,15.032,-9.797,3.125,-2.476,8.586,2.931,-2.448,8.504,-0.122,0.659,-0.591,53.23
'0:02.234',-37.334,1214.319,-25.491,15.594,-9.295,3.21,-2.538,8.623,2.989,-2.526,8.544,-0.11,0.67,-0.649,53.234
'0:02.238',-38.673,1214.41,-25.471,16.431,-8.506,3.209,-2.597,8.646,2.979,-2.574,8.582,-0.124,0.654,-0.622,53.238
'0:02.242',-24.413,1214.538,-25.544,17.116,-7.41,3.221,-2.62,8.706,3.017,-2.661,8.602,-0.117,0.665,-0.599,53.242
'0:02.246',-34.381,1214.696,-25.438,17.678,-6.528,3.209,-2.631,8.742,2.997,-2.658,8.738,-0.12,0.659,-0.599,53.245
'0:02.250',-23.305,1214.857,-25.23,17.617,-5.3,3.16,-2.641,8.79,2.988,-2.678,8.699,-0.106,0.666,-0.628,53.249
'0:02.254',-37.611,1214.951,-25.187,17.69,-4.348,3.135,-2.64,8.814,2.968,-2.657,8.767,-0.106,0.666,-0.628,53.253
'0:02.258',-67.008,1214.904,-25.187,17.385,-3.805,3.11,-2.651,8.837,2.967,-2.666,8.806,-0.118,0.656,-0.628,53.257
'0:02.262',-82.883,1214.689,-25.114,17.11,-3.127,3.098,-2.675,8.861,2.91,-2.743,8.785,-0.096,0.666,-0.609,53.261
'0:02.266',-96.912,1214.329,-24.379,16.492,-1.764,3.085,-2.735,8.848,2.9,-2.742,8.843,-0.101,0.656,-0.641,53.265
'0:02.270',-91.236,1213.862,-24.111,15.716,-1.003,3.072,-2.747,8.799,2.939,-2.773,8.755,-0.117,0.656,-0.601,53.269
'0:02.273',-89.898,1213.324,-24.088,14.665,-0.315,3.06,-2.76,8.75,2.91,-2.823,8.696,-0.12,0.659,-0.62,53.273
'0:02.277',-99.358,1212.783,-23.737,13.523,0.543,3.035,-2.796,8.737,2.882,-2.813,8.676,-0.099,0.663,-0.605,53.277
'0:02.281',-111.495,1212.303,-23.628,12.618,0.83,3.011,-2.82,8.712,2.882,-2.852,8.666,-0.099,0.663,-0.605,53.281
'0:02.285',-126.032,1211.919,-23.817,11.427,1.481,2.998,-2.808,8.676,2.863,-2.882,8.587,-0.108,0.652,-0.641,53.284
'0:02.289',-123.863,1211.664,-23.89,10.804,2.259,2.962,-2.772,8.639,2.796,-2.853,8.547,-0.113,0.652,-0.611,53.288
'0:02.293',-140.061,1211.563,-23.714,9.893,3.006,2.938,-2.748,8.591,2.787,-2.843,8.538,-0.099,0.652,-0.668,53.292
'0:02.297',-146.799,1211.63,-23.731,9.661,3.594,2.926,-2.724,8.567,2.787,-2.785,8.509,-0.113,0.645,-0.643,53.296
'0:02.301',-141.123,1211.815,-23.426,9.551,4.497,2.926,-2.724,8.579,2.777,-2.766,8.509,-0.103,0.654,-0.616,53.3
'0:02.305',-141.676,1212.027,-23.324,9.282,5.421,2.951,-2.736,8.592,2.758,-2.785,8.489,-0.103,0.654,-0.616,53.304
'0:02.309',-141.676,1212.155,-23.35,8.763,5.95,2.938,-2.784,8.591,2.787,-2.804,8.518,-0.099,0.649,-0.611,53.308
'0:02.313',-141.4,1212.155,-23.185,7.779,6.839,2.913,-2.832,8.565,2.787,-2.843,8.538,-0.092,0.647,-0.651,53.312
'0:02.316',-130.37,1212.064,-23.331,7.394,7.86,2.851,-2.879,8.551,2.72,-2.892,8.458,-0.106,0.643,-0.639,53.316
'0:02.320',-138.723,1211.956,-23.162,7.058,8.998,2.801,-2.915,8.526,2.652,-2.958,8.495,-0.085,0.654,-0.614,53.32
'0:02.324',-139,1211.879,-23.218,6.618,9.759,2.74,-2.914,8.501,2.623,-2.919,8.476,-0.103,0.64,-0.662,53.324
'0:02.328',-141.4,1211.849,-23.251,5.952,10.153,2.716,-2.913,8.488,2.595,-2.939,8.426,-0.106,0.642,-0.626,53.327
'0:02.332',-142.738,1211.839,-23.294,6.019,10.921,2.704,-2.877,8.489,2.576,-2.92,8.397,-0.106,0.642,-0.626,53.331
'0:02.336',-130.601,1211.792,-22.861,6.233,11.388,2.741,-2.853,8.538,2.509,-2.909,8.396,-0.108,0.649,-0.647,53.335
'0:02.340',-137.108,1211.654,-22.629,6.716,12.222,2.79,-2.829,8.612,2.566,-2.889,8.455,-0.094,0.647,-0.618,53.339
'0:02.344',-136.554,1211.415,-22.417,7.131,12.813,2.876,-2.854,8.661,2.642,-2.898,8.574,-0.089,0.643,-0.664,53.343
'0:02.348',-125.247,1211.099,-22.52,7.815,13.356,2.962,-2.83,8.723,2.738,-2.87,8.624,-0.08,0.643,-0.682,53.347
'0:02.352',-128.478,1210.709,-22.513,8.659,13.498,3.047,-2.88,8.748,2.814,-2.878,8.753,-0.083,0.636,-0.701,53.351
'0:02.355',-99.635,1210.249,-22.351,9.746,13.927,3.107,-2.964,8.808,2.862,-2.956,8.763,-0.083,0.636,-0.701,53.355
'0:02.359',-103.65,1209.738,-21.786,10.834,14.488,3.106,-3.012,8.819,2.948,-3.006,8.773,-0.099,0.635,-0.655,53.359
'0:02.363',-101.758,1209.204,-21.412,11.726,15.221,3.044,-3.083,8.816,2.9,-3.054,8.782,-0.094,0.642,-0.637,53.363
'0:02.367',-60.778,1208.679,-21.289,12.374,16.041,2.934,-3.092,8.839,2.842,-3.111,8.8,-0.094,0.642,-0.637,53.367
'0:02.371',56.209,1208.185,-21.144,12.624,16.784,2.787,-3.125,8.8,2.746,-3.119,8.769,-0.089,0.638,-0.649,53.37
'0:02.375',206.654,1207.748,-20.704,12.753,17.117,2.627,-3.123,8.737,2.545,-3.156,8.687,-0.09,0.635,-0.664,53.374
'0:02.379',364.621,1207.392,-20.863,12.233,17.511,2.444,-3.121,8.638,2.43,-3.146,8.627,-0.071,0.636,-0.653,53.378
'0:02.383',393.74,1207.12,-20.661,11.482,18.054,2.249,-3.082,8.515,2.209,-3.144,8.516,-0.071,0.636,-0.653,53.382
'0:02.387',245.742,1206.912,-20.717,10.865,18.542,2.078,-3.032,8.429,2.114,-3.096,8.427,-0.085,0.62,-0.678,53.386
'0:02.391',-35.442,1206.733,-20.892,9.991,18.926,1.956,-2.959,8.356,1.894,-3.036,8.326,-0.078,0.636,-0.653,53.39
'0:02.395',-269.462,1206.562,-21.028,9.826,19.206,1.921,-2.85,8.309,1.798,-2.89,8.267,-0.087,0.643,-0.668,53.394
'0:02.398',-560.891,1206.411,-21.177,10.516,19.092,2.019,-2.817,8.299,1.866,-2.844,8.19,-0.055,0.642,-0.674,53.398
'0:02.402',-819.693,1206.303,-21.087,11.525,18.597,2.19,-2.819,8.386,2,-2.874,8.25,-0.078,0.627,-0.687,53.402
'0:02.406',-885.731,1206.256,-20.78,12.722,17.67,2.41,-2.907,8.46,2.106,-2.885,8.272,-0.078,0.627,-0.664,53.406
'0:02.410',-832.66,1206.26,-21.028,14.134,17.179,2.592,-3.006,8.533,2.316,-3.013,8.382,-0.054,0.633,-0.664,53.409
'0:02.414',-705.936,1206.283,-21.524,15.429,17.016,2.689,-3.079,8.606,2.469,-3.089,8.569,-0.066,0.633,-0.716,53.413
'0:02.418',-569.798,1206.283,-21.997,16.26,17.303,2.689,-3.163,8.616,2.507,-3.139,8.54,-0.073,0.631,-0.674,53.417
'0:02.422',-429.044,1206.226,-22.404,17.293,18.064,2.651,-3.197,8.688,2.516,-3.206,8.608,-0.066,0.631,-0.68,53.421
'0:02.426',-263.001,1206.098,-22.093,18.301,19.106,2.565,-3.217,8.771,2.459,-3.215,8.617,-0.057,0.633,-0.657,53.425
'0:02.430',-157.598,1205.897,-21.815,20.22,19.365,2.492,-3.238,8.83,2.352,-3.279,8.702,-0.057,0.633,-0.699,53.429
'0:02.434',-119.017,1205.675,-21.395,19.976,18.902,2.466,-3.285,8.853,2.303,-3.286,8.789,-0.057,0.633,-0.699,53.433
'0:02.438',-88.559,1205.513,-20.813,20.299,18.303,2.478,-3.357,8.913,2.303,-3.382,8.857,-0.052,0.617,-0.676,53.437
'0:02.441',-63.224,1205.51,-19.87,20.391,17.777,2.477,-3.416,8.936,2.312,-3.431,8.866,-0.048,0.626,-0.739,53.441
'0:02.445',-33.827,1205.705,-19.195,20.464,17.473,2.464,-3.464,8.947,2.312,-3.449,8.935,-0.061,0.615,-0.705,53.445
'0:02.449',-28.151,1206.068,-18.474,20.226,17.68,2.439,-3.523,8.946,2.273,-3.506,8.963,-0.05,0.627,-0.678,53.449
'0:02.453',-35.996,1206.538,-17.892,19.487,17.386,2.402,-3.535,8.884,2.312,-3.536,8.934,-0.057,0.629,-0.693,53.452
'0:02.457',-20.352,1207.046,-17.405,18.784,16.868,2.354,-3.524,8.799,2.245,-3.576,8.815,-0.057,0.629,-0.708,53.456
'0:02.461',-13.614,1207.53,-17.002,17.611,15.83,2.317,-3.525,8.69,2.208,-3.569,8.668,-0.04,0.622,-0.708,53.46
'0:02.465',12.552,1207.947,-16.3,16.205,14.747,2.317,-3.502,8.642,2.198,-3.53,8.639,-0.05,0.62,-0.71,53.464
'0:02.469',17.675,1208.276,-16.052,14.69,14.09,2.256,-3.479,8.52,2.113,-3.561,8.472,-0.024,0.615,-0.691,53.468
'0:02.473',12.552,1208.505,-15.857,13.303,13.858,2.135,-3.418,8.41,2.056,-3.503,8.403,-0.038,0.61,-0.733,53.472
'0:02.477',14.675,1208.646,-15.553,12.252,13.854,2.013,-3.322,8.277,1.922,-3.425,8.274,-0.05,0.617,-0.695,53.476
'0:02.480',20.905,1208.73,-15.209,11.231,13.415,1.904,-3.26,8.217,1.875,-3.377,8.205,-0.045,0.629,-0.703,53.48
'0:02.484',27.92,1208.817,-14.544,10.73,12.965,1.843,-3.199,8.205,1.808,-3.31,8.146,-0.045,0.629,-0.703,53.484
'0:02.488',31.658,1208.921,-14.219,11.237,12.063,1.905,-3.164,8.218,1.77,-3.231,8.166,-0.015,0.612,-0.747,53.488
'0:02.492',27.643,1209.022,-13.809,11.952,11.215,1.966,-3.225,8.254,1.808,-3.261,8.127,-0.029,0.612,-0.756,53.492
'0:02.496',31.935,1209.113,-13.29,13.132,10.682,2.001,-3.333,8.289,1.885,-3.359,8.147,-0.036,0.613,-0.693,53.495
'0:02.500',53.763,1209.184,-12.833,14.018,10.693,2.049,-3.454,8.336,1.836,-3.376,8.224,-0.024,0.62,-0.708,53.499
'0:02.504',74.022,1209.237,-12.37,15.655,11.17,2.035,-3.573,8.382,1.884,-3.57,8.302,-0.027,0.608,-0.77,53.503
'0:02.508',138.723,1209.261,-11.546,16.963,12.045,2.01,-3.656,8.392,1.835,-3.637,8.29,-0.027,0.613,-0.76,53.507
'0:02.512',150.814,1209.227,-10.712,17.519,12.744,1.923,-3.738,8.414,1.826,-3.734,8.309,-0.017,0.613,-0.76,53.511
'0:02.516',99.081,1209.113,-10.153,17.843,13.145,1.824,-3.832,8.375,1.71,-3.849,8.267,-0.017,0.61,-0.745,53.515
'0:02.520',80.483,1208.932,-9.601,18.167,13.422,1.714,-3.855,8.324,1.653,-3.888,8.227,-0.029,0.604,-0.733,53.519
'0:02.523',79.929,1208.723,-8.827,18.045,13.765,1.652,-3.902,8.31,1.586,-3.926,8.196,-0.029,0.617,-0.701,53.523
'0:02.527',71.023,1208.515,-7.914,17.122,13.564,1.627,-3.961,8.297,1.528,-3.955,8.165,-0.019,0.613,-0.76,53.527
'0:02.531',65.623,1208.303,-7.192,16.315,13.194,1.614,-4.009,8.308,1.48,-3.974,8.155,0.002,0.62,-0.714,53.531
'0:02.535',65.116,1208.078,-6.365,15.307,12.609,1.614,-3.984,8.332,1.518,-3.993,8.204,0.002,0.62,-0.714,53.534
'0:02.539',64.839,1207.822,-5.671,13.95,12.17,1.676,-3.913,8.371,1.527,-3.963,8.273,-0.019,0.61,-0.728,53.538
'0:02.543',80.206,1207.54,-5.641,12.453,11.592,1.775,-3.88,8.349,1.614,-3.896,8.255,0.002,0.619,-0.749,53.542
'0:02.547',69.684,1207.268,-5.009,10.724,10.945,1.849,-3.762,8.291,1.691,-3.887,8.296,-0.017,0.612,-0.762,53.546
'0:02.551',79.376,1207.093,-4.668,8.934,10.24,1.912,-3.644,8.282,1.74,-3.754,8.219,-0.026,0.613,-0.718,53.55
'0:02.555',79.929,1207.103,-4.4,7.62,9.842,1.975,-3.489,8.262,1.779,-3.648,8.182,-0.005,0.619,-0.743,53.554
'0:02.559',96.912,1207.355,-4.529,6.184,9.371,2.013,-3.382,8.276,1.865,-3.474,8.214,-0.012,0.601,-0.733,53.558
'0:02.563',112.557,1207.802,-4.231,5.053,8.922,2.087,-3.346,8.363,1.951,-3.387,8.304,-0.012,0.601,-0.733,53.562
'0:02.566',116.618,1208.353,-3.48,4.119,8.043,2.16,-3.309,8.498,2.008,-3.425,8.402,0.008,0.615,-0.745,53.566
'0:02.570',140.846,1208.938,-3.011,4.027,7.545,2.233,-3.345,8.571,2.055,-3.365,8.521,-0.017,0.612,-0.718,53.57
'0:02.574',141.953,1209.513,-2.435,3.837,7.354,2.27,-3.37,8.558,2.094,-3.395,8.492,-0.003,0.617,-0.762,53.574
'0:02.578',161.613,1210.041,-1.578,3.892,7.555,2.33,-3.432,8.57,2.19,-3.474,8.513,-0.015,0.599,-0.733,53.577
'0:02.582',178.088,1210.481,-0.695,3.99,7.06,2.342,-3.48,8.582,2.17,-3.513,8.512,-0.012,0.617,-0.708,53.581
'0:02.586',180.487,1210.83,0.189,4.51,7.7,2.305,-3.515,8.581,2.17,-3.523,8.502,-0.012,0.617,-0.708,53.585
'0:02.590',187.225,1211.14,0.741,4.601,8.226,2.255,-3.598,8.591,2.142,-3.619,8.501,-0.017,0.617,-0.724,53.589
'0:02.594',204.485,1211.452,2.134,4.216,7.887,2.205,-3.693,8.6,2.113,-3.687,8.461,-0.003,0.622,-0.739,53.593
'0:02.598',224.698,1211.788,2.471,3.929,7.576,2.081,-3.81,8.572,2.026,-3.821,8.487,-0.008,0.617,-0.733,53.597
'0:02.602',257.325,1212.148,3.06,3.257,7.991,1.958,-3.929,8.532,1.94,-3.878,8.476,0.009,0.615,-0.703,53.601
'0:02.605',274.861,1212.531,3.917,2.359,8.237,1.834,-4.011,8.505,1.757,-4.022,8.413,-0.003,0.615,-0.766,53.605
'0:02.609',296.413,1212.978,4.453,1.143,8.475,1.699,-4.068,8.49,1.594,-4.097,8.4,-0.013,0.613,-0.72,53.609
'0:02.613',299.136,1213.587,4.86,0.104,8.327,1.626,-4.066,8.476,1.527,-4.116,8.379,-0.013,0.613,-0.72,53.613
'0:02.617',306.381,1214.427,5.24,-0.984,8.368,1.528,-4.065,8.427,1.431,-4.145,8.289,-0.008,0.619,-0.72,53.617
'0:02.621',323.641,1215.465,5.439,-1.558,8.634,1.479,-4.016,8.391,1.364,-4.105,8.289,-0.001,0.615,-0.71,53.62
'0:02.625',337.67,1216.558,5.247,-2.634,8.482,1.467,-3.969,8.343,1.335,-4.038,8.22,-0.001,0.613,-0.737,53.624
'0:02.629',355.991,1217.522,5.661,-3.281,8.223,1.566,-3.91,8.394,1.442,-3.963,8.193,-0.006,0.61,-0.701,53.628
'0:02.633',359.498,1218.231,5.862,-3.74,8.133,1.628,-3.887,8.407,1.499,-3.905,8.224,0.008,0.617,-0.764,53.632
'0:02.637',370.297,1218.604,5.869,-4.375,8.327,1.714,-3.829,8.434,1.547,-3.846,8.303,0.008,0.617,-0.764,53.636
'0:02.641',373.527,1218.608,5.843,-4.406,9.112,1.739,-3.757,8.472,1.527,-3.834,8.391,-0.008,0.606,-0.735,53.64
'0:02.645',370.297,1218.231,5.809,-4.155,9.738,1.74,-3.672,8.509,1.613,-3.797,8.354,-0.006,0.613,-0.701,53.644
'0:02.648',369.743,1217.482,5.892,-3.972,9.873,1.79,-3.612,8.547,1.575,-3.729,8.363,-0.012,0.617,-0.716,53.648
'0:02.652',356.545,1216.386,5.886,-4.094,9.689,1.876,-3.529,8.574,1.7,-3.651,8.454,0.002,0.626,-0.733,53.652
'0:02.656',337.67,1214.998,5.793,-4.241,9.416,1.962,-3.506,8.636,1.756,-3.582,8.592,-0.01,0.615,-0.739,53.656
'0:02.660',327.425,1213.459,5.988,-4.442,9.233,2.036,-3.47,8.747,1.794,-3.533,8.623,0.013,0.617,-0.718,53.659
'0:02.664',291.29,1211.98,6.074,-4.815,9.638,2.061,-3.408,8.87,1.86,-3.502,8.8,0.013,0.617,-0.718,53.663
'0:02.668',256.54,1210.8,6.051,-4.613,10.326,2.037,-3.322,8.919,1.899,-3.435,8.801,0.004,0.608,-0.749,53.667
'0:02.672',226.036,1210.115,6.342,-4.271,10.008,2.099,-3.253,8.861,1.976,-3.338,8.832,-0.012,0.612,-0.703,53.671
'0:02.676',192.071,1210.007,6.448,-4.418,8.593,2.308,-3.173,8.853,2.053,-3.272,8.795,-0.01,0.62,-0.714,53.675
'0:02.680',151.921,1210.434,6.359,-5.768,6.555,2.48,-3.129,8.868,2.255,-3.207,8.828,0.004,0.619,-0.695,53.679
'0:02.684',116.341,1211.247,5.859,-6.544,5.608,2.517,-3.141,8.905,2.312,-3.158,8.898,-0.005,0.617,-0.731,53.683
'0:02.688',93.959,1212.239,5.776,-6.434,6.881,2.321,-3.172,8.938,2.206,-3.186,8.876,-0.005,0.617,-0.731,53.687
'0:02.691',61.055,1213.203,6.021,-5.524,9.461,1.941,-3.188,8.92,1.87,-3.218,8.9,-0.006,0.615,-0.703,53.691
'0:02.695',29.812,1213.993,6.967,-4.626,10.924,1.622,-3.254,8.842,1.696,-3.245,8.877,0.006,0.624,-0.754,53.695
'0:02.699',24.69,1214.534,7.48,-4.07,10.478,1.56,-3.279,8.72,1.544,-3.294,8.747,-0.006,0.615,-0.728,53.699
'0:02.703',3.646,1214.823,7.728,-4.326,7.835,1.756,-3.31,8.589,1.661,-3.319,8.534,0.002,0.624,-0.697,53.702
'0:02.707',-20.352,1214.887,7.775,-5.194,5.234,1.951,-3.389,8.481,1.757,-3.351,8.477,-0.012,0.62,-0.701,53.706
'0:02.711',-37.334,1214.759,7.563,-5.927,3.985,2.024,-3.463,8.445,1.883,-3.501,8.38,0.006,0.626,-0.724,53.71
'0:02.715',-35.996,1214.484,7.397,-5.726,5.386,1.901,-3.557,8.393,1.835,-3.529,8.34,0.006,0.626,-0.724,53.714
'0:02.719',-55.425,1214.121,7.397,-4.662,7.413,1.729,-3.602,8.377,1.662,-3.604,8.376,-0.008,0.619,-0.722,53.718
'0:02.723',-58.886,1213.721,7.993,-4.094,8.012,1.606,-3.622,8.412,1.556,-3.611,8.393,0.015,0.629,-0.705,53.722
'0:02.727',-53.256,1213.365,8.086,-3.954,7.424,1.618,-3.609,8.473,1.498,-3.63,8.383,-0.001,0.612,-0.741,53.726
'0:02.730',-57.04,1213.153,7.973,-3.954,5.794,1.692,-3.551,8.499,1.546,-3.611,8.383,0.001,0.619,-0.689,53.73
'0:02.734',-54.04,1213.123,7.53,-3.642,5.476,1.742,-3.505,8.452,1.546,-3.611,8.374,-0.008,0.629,-0.71,53.734
'0:02.738',-53.532,1213.24,7.48,-3.605,6.123,1.742,-3.456,8.453,1.547,-3.534,8.345,-0.008,0.629,-0.71,53.738
'0:02.742',-71.577,1213.479,7.712,-3.452,6.683,1.73,-3.431,8.501,1.594,-3.524,8.434,0.008,0.626,-0.695,53.742
'0:02.746',-67.792,1213.832,8.096,-3.446,6.939,1.73,-3.43,8.586,1.593,-3.493,8.512,0.002,0.619,-0.726,53.745
'0:02.750',-59.439,1214.279,8.572,-2.744,7.427,1.742,-3.429,8.659,1.574,-3.462,8.58,-0.008,0.617,-0.693,53.749
'0:02.754',-57.27,1214.77,8.83,-2.071,7.462,1.779,-3.404,8.709,1.622,-3.454,8.571,0.002,0.622,-0.756,53.753
'0:02.758',-37.611,1215.25,9.399,-1.729,5.985,1.852,-3.442,8.709,1.708,-3.484,8.602,-0.006,0.615,-0.722,53.757
'0:02.762',-37.334,1215.67,9.525,-1.723,6.185,1.889,-3.444,8.661,1.737,-3.474,8.603,0.004,0.629,-0.693,53.761
'0:02.766',-34.658,1216.013,9.502,-2.444,6.611,1.889,-3.445,8.6,1.718,-3.513,8.582,0.004,0.629,-0.693,53.765
'0:02.770',-43.518,1216.289,9.952,-3.037,6.763,1.816,-3.443,8.587,1.718,-3.485,8.544,-0.008,0.626,-0.689,53.769
'0:02.773',-56.763,1216.511,9.985,-3.153,6.441,1.767,-3.406,8.587,1.651,-3.475,8.503,0.004,0.631,-0.72,53.773
'0:02.777',-67.008,1216.716,9.869,-3,6.351,1.706,-3.417,8.598,1.593,-3.482,8.581,-0.003,0.626,-0.708,53.777
'0:02.781',-66.731,1216.937,10.289,-3.245,5.317,1.767,-3.406,8.611,1.631,-3.473,8.562,0.018,0.631,-0.689,53.781
'0:02.785',-67.008,1217.176,10.54,-3.941,4.293,1.828,-3.431,8.612,1.66,-3.493,8.582,-0.001,0.619,-0.726,53.784
'0:02.789',-62.67,1217.398,10.613,-4.717,3.795,1.902,-3.443,8.697,1.698,-3.483,8.612,-0.001,0.619,-0.726,53.788
'0:02.793',-74.807,1217.586,10.574,-4.797,4.258,1.877,-3.43,8.745,1.737,-3.464,8.661,-0.005,0.627,-0.691,53.792
'0:02.797',-81.268,1217.768,10.802,-4.222,4.584,1.877,-3.419,8.71,1.765,-3.435,8.672,-0.01,0.636,-0.705,53.796
'0:02.801',-79.145,1217.966,10.676,-4.406,4.065,1.927,-3.383,8.735,1.775,-3.436,8.613,0.008,0.636,-0.674,53.8
'0:02.805',-82.098,1218.205,11.073,-4.913,2.93,2,-3.372,8.785,1.871,-3.407,8.703,-0.001,0.627,-0.716,53.804
'0:02.809',-65.67,1218.49,11.143,-5.304,2.487,2.049,-3.337,8.81,1.871,-3.426,8.713,0.001,0.627,-0.687,53.808
'0:02.813',-46.795,1218.833,10.918,-5.267,3.259,2.013,-3.301,8.762,1.813,-3.328,8.703,0.008,0.631,-0.754,53.812
'0:02.816',-50.025,1219.253,10.732,-5.108,4.137,1.916,-3.251,8.725,1.784,-3.279,8.732,0.008,0.631,-0.754,53.816
'0:02.820',-43.287,1219.791,11.07,-5.292,4.103,1.867,-3.226,8.737,1.746,-3.268,8.741,-0.001,0.627,-0.699,53.82
'0:02.824',-46.518,1220.473,11.093,-4.943,3.404,1.892,-3.238,8.774,1.774,-3.268,8.742,0.001,0.635,-0.695,53.824
'0:02.828',-65.116,1221.27,10.904,-4.956,2.933,1.915,-3.285,8.821,1.765,-3.268,8.761,-0.008,0.636,-0.676,53.827
'0:02.832',-78.868,1222.1,11.096,-4.497,3.03,1.903,-3.321,8.808,1.784,-3.366,8.712,0.008,0.64,-0.714,53.831
'0:02.836',-81.037,1222.91,10.851,-4.253,3.048,1.89,-3.393,8.819,1.785,-3.406,8.672,-0.005,0.631,-0.693,53.835
'0:02.840',-74.253,1223.68,10.726,-4.241,2.833,1.876,-3.476,8.829,1.755,-3.433,8.769,-0.005,0.631,-0.693,53.839
'0:02.844',-78.591,1224.399,10.66,-4.43,2.653,1.827,-3.487,8.853,1.745,-3.52,8.749,0.016,0.635,-0.682,53.843
'0:02.848',-66.731,1225.041,10.58,-4.522,2.702,1.778,-3.498,8.84,1.698,-3.568,8.728,0.001,0.627,-0.708,53.847
'0:02.852',-65.67,1225.595,10.408,-4.748,2.754,1.729,-3.497,8.863,1.62,-3.518,8.756,-0.006,0.633,-0.682,53.851
'0:02.855',-65.116,1226.093,10.269,-5.548,2.522,1.717,-3.472,8.888,1.601,-3.556,8.775,-0.012,0.642,-0.697,53.855
'0:02.859',-71.023,1226.557,10.18,-5.891,1.927,1.718,-3.447,8.913,1.62,-3.527,8.776,0.009,0.64,-0.676,53.859
'0:02.863',-59.439,1226.946,9.985,-6.917,1.27,1.767,-3.376,8.927,1.649,-3.517,8.845,-0.001,0.629,-0.71,53.863
'0:02.867',-67.515,1227.195,9.895,-7.455,0.664,1.804,-3.365,8.927,1.629,-3.419,8.855,-0.001,0.629,-0.71,53.867
'0:02.871',-67.792,1227.242,9.819,-7.797,0.332,1.829,-3.329,8.94,1.668,-3.401,8.836,0.02,0.635,-0.726,53.87
'0:02.875',-65.393,1227.078,9.343,-8.225,-0.145,1.866,-3.306,8.941,1.696,-3.41,8.876,0.008,0.636,-0.726,53.874
'0:02.879',-53.256,1226.755,9.545,-8.066,-0.536,1.891,-3.294,8.942,1.715,-3.381,8.906,0.011,0.629,-0.731,53.878
'0:02.883',-73.192,1226.405,9.396,-7.993,-0.612,1.866,-3.27,8.942,1.687,-3.351,8.896,0.015,0.626,-0.708,53.882
'0:02.887',-66.454,1226.17,9.088,-8.084,-1.128,1.866,-3.27,8.942,1.754,-3.314,8.907,0.025,0.622,-0.722,53.886
'0:02.891',-69.408,1226.14,8.87,-8.158,-1.598,1.83,-3.246,8.893,1.706,-3.304,8.867,0.025,0.622,-0.705,53.89
'0:02.895',-67.008,1226.321,8.863,-8.152,-1.816,1.757,-3.244,8.904,1.639,-3.302,8.895,0.001,0.636,-0.705,53.894
'0:02.898',-67.792,1226.647,8.82,-8.066,-2.107,1.732,-3.232,8.88,1.572,-3.283,8.826,0.006,0.633,-0.699,53.898
'0:02.902',-70.515,1227.047,8.79,-8.31,-2.75,1.695,-3.243,8.868,1.534,-3.283,8.796,0.013,0.629,-0.726,53.902
'0:02.906',-81.545,1227.464,8.708,-8.482,-3.466,1.732,-3.244,8.868,1.572,-3.294,8.767,-0.005,0.627,-0.703,53.906
'0:02.910',-71.023,1227.877,8.565,-8.769,-4.245,1.768,-3.269,8.88,1.611,-3.294,8.787,-0.005,0.638,-0.666,53.909
'0:02.914',-84.498,1228.267,8.698,-8.488,-5.296,1.842,-3.271,8.845,1.668,-3.324,8.778,-0.003,0.651,-0.689,53.913
'0:02.918',-82.098,1228.61,8.536,-8.384,-5.985,1.878,-3.308,8.857,1.764,-3.364,8.799,-0.003,0.651,-0.689,53.917
'0:02.922',-83.437,1228.856,8.665,-8.372,-6.68,1.902,-3.357,8.832,1.764,-3.364,8.799,-0.005,0.635,-0.697,53.921
'0:02.926',-96.912,1228.96,8.899,-7.614,-7.403,1.915,-3.346,8.784,1.794,-3.356,8.771,-0.013,0.636,-0.695,53.925
'0:02.930',-104.204,1228.929,9.115,-7.748,-8.001,1.927,-3.335,8.748,1.736,-3.366,8.711,0.013,0.645,-0.705,53.929
'0:02.934',-101.481,1228.792,9.148,-7.919,-8.617,1.891,-3.31,8.76,1.784,-3.366,8.741,0.001,0.636,-0.722,53.933
'0:02.938',-98.02,1228.553,9.406,-7.809,-9.16,1.866,-3.297,8.748,1.746,-3.317,8.741,-0.013,0.642,-0.678,53.937
'0:02.941',-82.652,1228.247,9.406,-7.492,-9.717,1.83,-3.225,8.712,1.717,-3.326,8.721,-0.013,0.642,-0.68,53.941
'0:02.945',-96.635,1227.891,9.971,-7.473,-10.326,1.818,-3.225,8.688,1.717,-3.279,8.662,-0.012,0.647,-0.68,53.945
'0:02.949',-88.836,1227.447,10.306,-7.638,-11.405,1.843,-3.226,8.7,1.727,-3.299,8.604,-0.02,0.643,-0.649,53.949
'0:02.953',-86.113,1226.832,10.918,-7.932,-12.595,1.892,-3.227,8.701,1.775,-3.29,8.663,-0.008,0.645,-0.697,53.952
'0:02.957',-96.635,1226.029,11.053,-8.115,-13.149,1.892,-3.24,8.652,1.776,-3.291,8.595,-0.024,0.638,-0.672,53.956
'0:02.961',-110.664,1225.148,11.543,-8.176,-13.709,1.892,-3.253,8.592,1.776,-3.302,8.526,-0.001,0.649,-0.676,53.96
'0:02.965',-109.88,1224.355,11.91,-8.598,-14.031,1.879,-3.265,8.579,1.737,-3.271,8.555,-0.013,0.636,-0.691,53.964
'0:02.969',-106.88,1223.794,11.986,-8.885,-14.629,1.843,-3.241,8.555,1.786,-3.254,8.478,-0.013,0.636,-0.691,53.968
'0:02.973',-89.898,1223.552,12.688,-9.093,-15.439,1.818,-3.241,8.494,1.729,-3.274,8.419,-0.017,0.645,-0.655,53.972
'0:02.977',-97.189,1223.639,12.714,-9.453,-15.923,1.819,-3.194,8.471,1.739,-3.294,8.399,-0.029,0.652,-0.674,53.976
'0:02.980',-91.513,1223.982,13.111,-9.728,-16.525,1.856,-3.17,8.472,1.748,-3.255,8.409,-0.017,0.654,-0.647,53.98
'0:02.984',-106.88,1224.409,13.697,-10.015,-17.469,1.831,-3.17,8.483,1.739,-3.244,8.448,-0.031,0.64,-0.685,53.984
'0:02.988',-106.373,1224.742,13.895,-10.015,-18.026,1.856,-3.169,8.52,1.719,-3.206,8.429,-0.024,0.652,-0.653,53.988
'0:02.992',-92.067,1224.883,14.329,-9.875,-18.466,1.905,-3.159,8.509,1.719,-3.235,8.438,-0.024,0.652,-0.708,53.992
'0:02.996',-98.251,1224.829,14.821,-9.991,-18.812,1.917,-3.171,8.484,1.757,-3.224,8.488,-0.022,0.647,-0.708,53.995
'0:03.000',-104.988,1224.604,15.682,-10.706,-19.462,1.929,-3.22,8.472,1.796,-3.215,8.518,-0.033,0.645,-0.664,53.999
'0:03.004',-103.65,1224.177,16.208,-10.95,-19.881,1.953,-3.208,8.509,1.786,-3.244,8.478,-0.031,0.652,-0.651,54.003
'0:03.008',-91.236,1223.525,16.952,-11.298,-20.382,1.978,-3.221,8.472,1.854,-3.226,8.47,-0.036,0.652,-0.628,54.007
'0:03.012',-94.743,1222.695,17.422,-11.402,-20.863,1.99,-3.198,8.449,1.932,-3.242,8.266,-0.027,0.652,-0.676,54.011
'0:03.016',-82.652,1221.814,18.15,-12.087,-21.375,2.028,-3.139,8.438,1.912,-3.2,8.373,-0.045,0.649,-0.664,54.015
'0:03.020',-86.667,1221.008,18.636,-12.612,-22.174,2.077,-3.128,8.439,1.98,-3.182,8.365,-0.045,0.649,-0.664,54.019
'0:03.023',-85.052,1220.329,18.934,-13.003,-23.174,2.126,-3.117,8.428,1.98,-3.173,8.316,-0.027,0.651,-0.668,54.023
'0:03.027',-90.451,1219.814,19.443,-13.547,-23.575,2.138,-3.117,8.452,1.999,-3.143,8.405,-0.05,0.64,-0.67,54.027
'0:03.031',-95.297,1219.512,20.016,-13.883,-24.025,2.15,-3.105,8.465,2.017,-3.123,8.454,-0.04,0.654,-0.641,54.031
'0:03.035',-82.883,1219.475,20.558,-14.067,-24.17,2.15,-3.105,8.489,2.027,-3.172,8.424,-0.055,0.659,-0.653,54.034
'0:03.039',-70.515,1219.667,21.269,-14.238,-24.333,2.163,-3.044,8.503,2.046,-3.104,8.464,-0.045,0.663,-0.622,54.038
'0:03.043',-37.611,1219.969,21.852,-14.354,-24.647,2.177,-2.947,8.565,2.056,-3.035,8.504,-0.045,0.652,-0.666,54.042
'0:03.047',-28.428,1220.241,22.242,-14.892,-24.786,2.214,-2.875,8.615,2.065,-2.928,8.554,-0.054,0.652,-0.666,54.046
'0:03.051',-16.567,1220.399,22.269,-15.625,-25.298,2.276,-2.828,8.665,2.104,-2.89,8.535,-0.048,0.656,-0.637,54.05
'0:03.055',-17.398,1220.44,22.682,-15.814,-25.578,2.301,-2.78,8.691,2.171,-2.822,8.576,-0.05,0.661,-0.682,54.054
'0:03.059',-3.092,1220.416,23.066,-15.814,-25.664,2.338,-2.745,8.68,2.18,-2.784,8.557,-0.059,0.656,-0.641,54.058
'0:03.063',-3.369,1220.359,23.417,-16.12,-25.651,2.412,-2.711,8.657,2.248,-2.726,8.568,-0.048,0.658,-0.639,54.062
'0:03.066',-11.722,1220.282,23.307,-16.144,-25.848,2.461,-2.652,8.683,2.325,-2.708,8.589,-0.057,0.659,-0.609,54.066
'0:03.070',-1.477,1220.201,23.747,-16.456,-26.08,2.523,-2.629,8.66,2.382,-2.69,8.591,-0.057,0.659,-0.609,54.07
'0:03.074',-17.952,1220.14,23.585,-16.486,-26.246,2.572,-2.582,8.662,2.421,-2.613,8.553,-0.054,0.668,-0.651,54.074
'0:03.078',-48.133,1220.103,23.522,-16.761,-26.18,2.646,-2.572,8.639,2.44,-2.584,8.583,-0.071,0.663,-0.616,54.077
'0:03.082',-62.393,1220.073,23.542,-16.596,-26.246,2.683,-2.573,8.663,2.478,-2.594,8.593,-0.055,0.668,-0.634,54.081
'0:03.086',-59.439,1220.033,23.503,-15.643,-26.087,2.67,-2.56,8.7,2.468,-2.622,8.641,-0.078,0.652,-0.647,54.085
'0:03.090',-69.961,1219.986,22.537,-14.299,-25.443,2.646,-2.559,8.711,2.478,-2.622,8.661,-0.069,0.661,-0.611,54.089
'0:03.094',-53.532,1219.932,22.004,-13.816,-25.229,2.597,-2.569,8.747,2.478,-2.573,8.652,-0.076,0.666,-0.618,54.093
'0:03.098',-79.653,1219.858,21.501,-13.443,-24.948,2.56,-2.592,8.782,2.488,-2.583,8.681,-0.076,0.666,-0.618,54.097
'0:03.102',-90.451,1219.754,21.21,-13.297,-24.606,2.511,-2.578,8.806,2.392,-2.64,8.64,-0.069,0.674,-0.632,54.101
'0:03.105',-88.836,1219.596,20.843,-13.407,-24.046,2.45,-2.588,8.853,2.372,-2.649,8.688,-0.089,0.665,-0.632,54.105
'0:03.109',-88.006,1219.357,20.472,-13.535,-23.682,2.401,-2.586,8.913,2.323,-2.617,8.795,-0.064,0.666,-0.601,54.109
'0:03.113',-104.481,1219.051,20.069,-13.596,-22.984,2.364,-2.56,8.962,2.236,-2.556,8.853,-0.076,0.672,-0.647,54.113
'0:03.117',-94.743,1218.732,19.192,-14.012,-22.596,2.34,-2.535,8.986,2.227,-2.576,8.823,-0.092,0.665,-0.599,54.117
'0:03.121',-104.204,1218.463,18.805,-13.792,-22.209,2.328,-2.486,8.987,2.236,-2.566,8.833,-0.092,0.665,-0.599,54.12
'0:03.125',-88.282,1218.265,18.044,-13.786,-21.949,2.365,-2.474,9.036,2.207,-2.535,8.882,-0.083,0.668,-0.614,54.124
'0:03.129',-89.898,1218.124,17.6,-13.761,-21.697,2.378,-2.426,9.085,2.226,-2.515,8.95,-0.083,0.668,-0.58,54.128
'0:03.133',-105.542,1218.04,16.912,-13.272,-21.105,2.414,-2.426,9.122,2.283,-2.427,9.011,-0.087,0.675,-0.618,54.132
'0:03.137',-93.128,1218.09,16.472,-12.961,-20.825,2.427,-2.354,9.136,2.235,-2.446,9.029,-0.103,0.666,-0.586,54.136
'0:03.141',-86.113,1218.373,15.496,-12.588,-20.002,2.453,-2.294,9.125,2.302,-2.379,8.992,-0.089,0.674,-0.649,54.14
'0:03.145',-87.775,1218.967,14.861,-12.728,-19.573,2.514,-2.271,9.151,2.322,-2.352,8.954,-0.101,0.666,-0.618,54.144
'0:03.148',-90.174,1219.865,14.09,-12.582,-19.683,2.563,-2.223,9.188,2.409,-2.314,8.955,-0.101,0.666,-0.618,54.148
'0:03.152',-74.807,1220.95,13.247,-12.356,-19.628,2.637,-2.189,9.178,2.408,-2.274,9.004,-0.101,0.679,-0.584,54.152
'0:03.156',-77.76,1222.066,12.671,-11.445,-19.431,2.736,-2.144,9.168,2.562,-2.227,9.056,-0.103,0.67,-0.591,54.156
'0:03.160',-83.714,1223.065,11.821,-10.975,-19.545,2.81,-2.133,9.169,2.639,-2.18,9.068,-0.096,0.677,-0.618,54.159
'0:03.164',-68.9,1223.838,10.921,-10.333,-19.31,2.896,-2.099,9.195,2.687,-2.162,9.039,-0.111,0.67,-0.611,54.163
'0:03.168',-74.807,1224.355,10.031,-9.728,-19.517,2.982,-2.088,9.221,2.764,-2.133,9.09,-0.09,0.677,-0.576,54.167
'0:03.172',-76.699,1224.661,9.088,-9.227,-19.587,3.018,-2.065,9.258,2.821,-2.105,9.1,-0.09,0.677,-0.576,54.171
'0:03.176',-46.518,1224.869,8.208,-8.561,-19.396,3.031,-2.016,9.271,2.869,-2.096,9.111,-0.101,0.672,-0.626,54.175
'0:03.180',-66.454,1225.142,7.249,-7.956,-19.434,3.043,-2.005,9.248,2.879,-2.068,9.063,-0.11,0.67,-0.584,54.179
'0:03.184',-65.9,1225.582,6.643,-7.156,-19.296,3.032,-1.969,9.236,2.879,-2.067,9.073,-0.117,0.677,-0.595,54.183
'0:03.188',4.43,1226.187,6.028,-6.135,-18.902,3.019,-1.981,9.248,2.889,-2.048,9.073,-0.104,0.677,-0.574,54.187
'0:03.191',136,1226.886,5.495,-5.377,-18.964,3.02,-1.944,9.272,2.85,-2.008,9.121,-0.11,0.668,-0.609,54.191
'0:03.195',304.766,1227.578,4.731,-4.827,-18.957,2.983,-1.942,9.308,2.811,-1.958,9.18,-0.104,0.668,-0.58,54.195
'0:03.199',435.274,1228.173,3.811,-4.644,-18.867,2.909,-1.988,9.331,2.792,-1.986,9.218,-0.104,0.668,-0.58,54.199
'0:03.203',450.088,1228.583,2.905,-4.088,-18.767,2.811,-1.987,9.293,2.715,-2.043,9.167,-0.108,0.677,-0.643,54.202
'0:03.207',251.649,1228.751,2.154,-3.782,-18.175,2.701,-2.022,9.206,2.572,-2.063,9.058,-0.122,0.661,-0.601,54.206
'0:03.211',-33.273,1228.64,1.575,-3.501,-17.891,2.59,-2.081,9.107,2.485,-2.12,9.007,-0.117,0.675,-0.572,54.21
'0:03.215',-285.106,1228.237,0.711,-3.569,-17.431,2.528,-2.142,8.996,2.419,-2.14,8.927,-0.122,0.675,-0.572,54.214
'0:03.219',-604.824,1227.541,0.023,-3.336,-17.746,2.503,-2.155,8.923,2.371,-2.169,8.897,-0.11,0.677,-0.605,54.218
'0:03.223',-844.751,1226.54,-0.731,-3.263,-17.888,2.527,-2.18,8.874,2.362,-2.2,8.789,-0.11,0.677,-0.605,54.222
'0:03.227',-867.41,1225.246,-1.641,-3.19,-18.026,2.564,-2.206,8.874,2.381,-2.21,8.789,-0.12,0.67,-0.582,54.226
'0:03.230',-788.681,1223.737,-2.465,-2.835,-17.757,2.588,-2.253,8.922,2.42,-2.288,8.78,-0.103,0.674,-0.57,54.23
'0:03.234',-659.834,1222.181,-2.974,-1.833,-17.362,2.588,-2.265,8.934,2.439,-2.318,8.78,-0.122,0.663,-0.603,54.234
'0:03.238',-499.698,1220.776,-3.659,-0.336,-16.864,2.661,-2.254,8.971,2.429,-2.317,8.819,-0.134,0.668,-0.568,54.238
'0:03.242',-340.623,1219.66,-4.172,0.623,-16.376,2.722,-2.267,8.996,2.534,-2.299,8.87,-0.132,0.67,-0.591,54.242
'0:03.246',-195.301,1218.843,-4.989,0.941,-16.539,2.784,-2.268,8.985,2.544,-2.279,8.87,-0.118,0.675,-0.572,54.245
'0:03.250',-109.603,1218.241,-5.743,1.222,-16.743,2.808,-2.245,9.01,2.573,-2.271,8.841,-0.118,0.675,-0.572,54.249
'0:03.254',-70.238,1217.758,-7.259,2.976,-15.819,2.833,-2.244,9.046,2.591,-2.327,8.968,-0.122,0.672,-0.605,54.253
'0:03.258',-36.273,1217.334,-7.811,3.587,-15.145,2.808,-2.28,9.07,2.611,-2.327,8.968,-0.11,0.67,-0.572,54.257
'0:03.262',-9.553,1216.934,-8.261,4.51,-15.027,2.808,-2.256,9.058,2.659,-2.366,8.979,-0.106,0.679,-0.624,54.261
'0:03.266',17.398,1216.514,-8.552,5.616,-14.744,2.821,-2.244,9.059,2.668,-2.337,8.999,-0.131,0.666,-0.586,54.265
'0:03.270',20.352,1216.033,-8.909,6.172,-14.609,2.858,-2.232,9.083,2.697,-2.289,8.98,-0.127,0.677,-0.557,54.269
'0:03.273',12.783,1215.489,-9.369,6.52,-14.605,2.907,-2.221,9.109,2.707,-2.32,8.921,-0.127,0.677,-0.557,54.273
'0:03.277',15.506,1214.894,-9.968,6.642,-14.536,2.931,-2.246,9.06,2.746,-2.263,8.903,-0.117,0.668,-0.555,54.277
'0:03.281',24.413,1214.282,-10.471,6.801,-14.266,2.943,-2.223,9.036,2.775,-2.244,8.903,-0.115,0.677,-0.605,54.281
'0:03.285',32.489,1213.681,-10.977,6.978,-13.955,2.955,-2.236,9.012,2.823,-2.293,8.914,-0.131,0.661,-0.595,54.284
'0:03.289',34.658,1213.092,-11.377,6.96,-13.578,2.98,-2.224,9.025,2.813,-2.293,8.904,-0.11,0.674,-0.588,54.288
'0:03.293',28.428,1212.535,-11.956,6.514,-14.19,2.98,-2.224,9.025,2.804,-2.283,8.894,-0.131,0.658,-0.611,54.292
'0:03.297',33.042,1212.044,-12.459,6.306,-13.965,2.967,-2.248,9.012,2.833,-2.284,8.884,-0.115,0.666,-0.568,54.296
'0:03.301',26.028,1211.651,-12.721,6.104,-13.927,2.918,-2.271,8.987,2.804,-2.322,8.893,-0.115,0.666,-0.568,54.3
'0:03.305',32.766,1211.382,-13.167,5.805,-13.578,2.882,-2.247,8.963,2.746,-2.293,8.834,-0.12,0.674,-0.632,54.304
'0:03.309',33.042,1211.271,-13.594,5.414,-13.287,2.845,-2.247,8.938,2.708,-2.273,8.834,-0.122,0.659,-0.614,54.308
'0:03.313',42.457,1211.335,-14.047,5.017,-13.353,2.833,-2.282,8.949,2.698,-2.291,8.892,-0.129,0.659,-0.605,54.312
'0:03.316',48.133,1211.55,-14.206,4.998,-13.547,2.893,-2.319,8.974,2.708,-2.34,8.872,-0.115,0.666,-0.578,54.316
'0:03.320',58.655,1211.876,-14.375,5.066,-13.239,2.917,-2.379,9.009,2.746,-2.389,8.872,-0.141,0.668,-0.595,54.32
'0:03.324',65.116,1212.306,-14.871,4.962,-12.554,2.905,-2.415,8.996,2.812,-2.418,8.961,-0.141,0.668,-0.595,54.324
'0:03.328',64.562,1212.82,-15.202,5.035,-11.502,2.904,-2.427,8.996,2.726,-2.437,8.901,-0.136,0.67,-0.563,54.327
'0:03.332',58.378,1213.375,-15.615,4.693,-10.585,2.868,-2.427,8.959,2.736,-2.467,8.872,-0.127,0.668,-0.563,54.331
'0:03.336',64.839,1213.899,-16.009,4.791,-9.766,2.88,-2.416,8.911,2.66,-2.447,8.822,-0.129,0.663,-0.645,54.335
'0:03.340',44.072,1214.339,-16.552,4.644,-9.368,2.917,-2.405,8.912,2.708,-2.438,8.822,-0.138,0.666,-0.57,54.339
'0:03.344',65.623,1214.696,-16.816,4.809,-8.984,2.978,-2.406,8.925,2.737,-2.448,8.833,-0.129,0.668,-0.572,54.343
'0:03.348',78.037,1214.988,-17.336,5.335,-8.659,3.039,-2.431,8.961,2.823,-2.478,8.873,-0.118,0.665,-0.609,54.347
'0:03.352',101.758,1215.227,-17.587,6.288,-7.96,3.124,-2.457,8.95,2.871,-2.498,8.913,-0.118,0.665,-0.609,54.351
'0:03.355',110.941,1215.452,-18.087,7.094,-6.919,3.149,-2.47,8.938,3.006,-2.53,8.856,-0.129,0.649,-0.618,54.355
'0:03.359',110.111,1215.697,-18.709,7.95,-5.843,3.087,-2.517,8.912,2.987,-2.501,8.827,-0.129,0.661,-0.591,54.359
'0:03.363',131.985,1215.953,-18.858,8.274,-4.476,3.039,-2.493,8.888,2.91,-2.481,8.787,-0.132,0.663,-0.595,54.363
'0:03.367',141.123,1216.178,-19.241,8.659,-3.279,2.953,-2.444,8.827,2.862,-2.471,8.747,-0.124,0.659,-0.622,54.367
'0:03.371',147.583,1216.356,-19.936,8.946,-2.273,2.954,-2.408,8.828,2.776,-2.45,8.755,-0.136,0.652,-0.626,54.37
'0:03.375',158.105,1216.497,-20.432,9.025,-1.574,2.99,-2.421,8.828,2.843,-2.433,8.688,-0.136,0.652,-0.626,54.374
'0:03.379',158.936,1216.601,-20.793,9.551,-1.36,3.088,-2.446,8.865,2.862,-2.432,8.767,-0.125,0.652,-0.624,54.378
'0:03.383',180.487,1216.648,-21.048,10.419,-0.906,3.21,-2.507,8.963,3.016,-2.531,8.808,-0.103,0.651,-0.651,54.382
'0:03.387',218.791,1216.621,-21.091,11.396,-0.381,3.282,-2.591,9.059,3.063,-2.559,8.896,-0.124,0.656,-0.657,54.386
'0:03.391',223.36,1216.527,-21.25,12.111,0.595,3.318,-2.639,9.095,3.1,-2.635,9.013,-0.124,0.642,-0.618,54.39
'0:03.395',236.835,1216.41,-21.653,12.301,1.567,3.294,-2.651,9.094,3.101,-2.646,8.974,-0.111,0.656,-0.593,54.394
'0:03.398',241.173,1216.349,-21.683,11.922,2.726,3.208,-2.674,9.056,3.063,-2.657,8.885,-0.111,0.643,-0.674,54.398
'0:03.402',262.171,1216.4,-22.252,11.286,3.667,3.061,-2.647,9.018,2.909,-2.663,8.941,-0.111,0.643,-0.674,54.402
'0:03.406',281.322,1216.564,-22.252,10.632,4.846,2.964,-2.621,8.993,2.861,-2.691,8.93,-0.101,0.64,-0.678,54.406
'0:03.410',299.643,1216.847,-22.394,10.15,5.192,2.878,-2.62,8.944,2.736,-2.68,8.89,-0.103,0.643,-0.649,54.409
'0:03.414',313.949,1217.23,-22.431,8.848,5.597,2.792,-2.608,8.846,2.65,-2.66,8.839,-0.124,0.635,-0.643,54.413
'0:03.418',321.241,1217.647,-23.397,6.923,6.514,2.719,-2.62,8.76,2.583,-2.642,8.731,-0.118,0.652,-0.611,54.417
'0:03.422',343.346,1218.01,-23.764,5.946,7.088,2.658,-2.584,8.699,2.498,-2.642,8.622,-0.097,0.652,-0.628,54.421
'0:03.426',345.192,1218.245,-24.393,5.744,7.455,2.633,-2.608,8.662,2.479,-2.624,8.563,-0.097,0.652,-0.653,54.425
'0:03.430',376.758,1218.302,-24.932,6.276,7.565,2.67,-2.669,8.637,2.498,-2.654,8.524,-0.099,0.647,-0.653,54.429
'0:03.434',389.679,1218.164,-25.011,7.101,7.908,2.767,-2.719,8.662,2.527,-2.712,8.544,-0.118,0.633,-0.664,54.433
'0:03.438',399.417,1217.842,-25.335,7.95,8.223,2.852,-2.804,8.722,2.622,-2.819,8.633,-0.115,0.642,-0.649,54.437
'0:03.441',408.554,1217.354,-25.607,8.756,9.292,2.887,-2.876,8.77,2.68,-2.848,8.682,-0.092,0.64,-0.668,54.441
'0:03.445',425.537,1216.722,-26.454,9.716,10.862,2.827,-2.851,8.745,2.67,-2.877,8.662,-0.118,0.638,-0.651,54.445
'0:03.449',422.306,1215.936,-26.993,9.924,12.99,2.656,-2.788,8.696,2.507,-2.847,8.582,-0.122,0.645,-0.645,54.449
'0:03.453',419.353,1214.985,-27.526,10.449,14.972,2.449,-2.676,8.646,2.411,-2.768,8.581,-0.122,0.645,-0.645,54.452
'0:03.457',445.75,1213.902,-27.906,11.219,16.366,2.327,-2.59,8.598,2.248,-2.678,8.539,-0.087,0.642,-0.691,54.456
'0:03.461',439.289,1212.803,-27.982,12.295,16.954,2.377,-2.567,8.586,2.21,-2.62,8.52,-0.096,0.64,-0.682,54.46
'0:03.465',440.904,1211.839,-27.562,14.262,16.826,2.572,-2.642,8.66,2.315,-2.641,8.541,-0.097,0.627,-0.674,54.464
'0:03.469',437.166,1211.136,-27.241,15.955,16.522,2.84,-2.755,8.747,2.622,-2.789,8.691,-0.085,0.622,-0.714,54.468
'0:03.473',416.907,1210.733,-27.307,17.171,16.335,3.119,-2.965,8.796,2.766,-2.888,8.722,-0.101,0.635,-0.668,54.472
'0:03.477',396.971,1210.568,-27.648,18.185,17.002,3.313,-3.137,8.819,3.015,-3.104,8.783,-0.101,0.635,-0.639,54.476
'0:03.480',376.481,1210.568,-27.794,18.986,18.3,3.374,-3.222,8.831,3.082,-3.174,8.774,-0.099,0.642,-0.639,54.48
'0:03.484',345.192,1210.689,-27.88,19.963,20.486,3.287,-3.256,8.853,3.111,-3.29,8.823,-0.082,0.633,-0.689,54.484
'0:03.488',307.719,1210.915,-27.658,20.293,22.077,3.129,-3.216,8.876,3.044,-3.27,8.783,-0.096,0.62,-0.678,54.488
'0:03.492',270.8,1211.214,-27.519,20.538,23.177,2.896,-3.15,8.898,2.832,-3.256,8.838,-0.082,0.633,-0.689,54.492
'0:03.496',235.22,1211.526,-27.132,20.171,23.713,2.726,-3.11,8.896,2.679,-3.147,8.768,-0.103,0.638,-0.664,54.495
'0:03.500',199.916,1211.819,-26.91,19.059,23.835,2.64,-3.085,8.872,2.573,-3.107,8.747,-0.082,0.636,-0.639,54.499
'0:03.504',168.627,1212.091,-26.563,17.666,23.295,2.543,-3.047,8.822,2.486,-3.077,8.745,-0.082,0.636,-0.639,54.503
'0:03.508',129.262,1212.319,-26.46,16.56,22.523,2.518,-3.071,8.809,2.409,-3.133,8.783,-0.094,0.626,-0.68,54.507
'0:03.512',91.513,1212.481,-26.331,15.955,22.098,2.481,-3.094,8.821,2.351,-3.132,8.782,-0.082,0.629,-0.655,54.511
'0:03.516',57.27,1212.588,-26.424,15.509,21.569,2.468,-3.129,8.832,2.323,-3.189,8.79,-0.075,0.633,-0.712,54.515
'0:03.520',39.226,1212.716,-26.222,15.564,21.226,2.443,-3.176,8.867,2.284,-3.159,8.839,-0.083,0.62,-0.678,54.519
'0:03.523',7.938,1212.948,-25.544,16.114,21.116,2.394,-3.235,8.877,2.255,-3.245,8.848,-0.083,0.631,-0.655,54.523
'0:03.527',-0.923,1213.318,-24.919,16.81,20.804,2.369,-3.234,8.877,2.226,-3.304,8.817,-0.083,0.624,-0.649,54.527
'0:03.531',-23.859,1213.761,-24.472,16.761,20.749,2.27,-3.305,8.814,2.178,-3.332,8.806,-0.082,0.624,-0.649,54.531
'0:03.535',-40.842,1214.168,-24.019,16.511,20.545,2.197,-3.305,8.764,2.168,-3.362,8.796,-0.068,0.633,-0.697,54.534
'0:03.539',-55.932,1214.42,-23.651,16.81,20.275,2.135,-3.341,8.678,2.063,-3.39,8.736,-0.075,0.619,-0.678,54.538
'0:03.543',-55.148,1214.47,-22.768,17.452,20.036,2.123,-3.366,8.605,2.026,-3.402,8.589,-0.059,0.627,-0.703,54.542
'0:03.547',-51.087,1214.346,-22.12,17.886,19.019,2.196,-3.417,8.533,2.035,-3.432,8.559,-0.073,0.612,-0.708,54.546
'0:03.551',-59.439,1214.111,-21.339,18.448,17.86,2.244,-3.455,8.52,2.094,-3.463,8.492,-0.066,0.62,-0.678,54.55
'0:03.555',-58.101,1213.805,-20.906,18.747,16.912,2.28,-3.529,8.459,2.133,-3.484,8.424,-0.066,0.62,-0.678,54.554
'0:03.559',-54.594,1213.415,-20.707,19.181,16.58,2.219,-3.529,8.361,2.133,-3.545,8.326,-0.082,0.627,-0.695,54.558
'0:03.563',-68.9,1212.938,-20.538,19.951,16.843,2.109,-3.528,8.299,2.038,-3.563,8.285,-0.055,0.626,-0.674,54.562
'0:03.566',-65.9,1212.444,-19.943,20.825,17.435,1.962,-3.526,8.237,1.961,-3.592,8.215,-0.064,0.612,-0.712,54.566
'0:03.570',-61.055,1212.017,-19.337,21.167,16.957,1.901,-3.501,8.212,1.847,-3.573,8.116,-0.061,0.613,-0.685,54.57
'0:03.574',-76.145,1211.664,-18.689,21.357,16.56,1.914,-3.489,8.2,1.847,-3.553,8.135,-0.05,0.615,-0.739,54.574
'0:03.578',-69.408,1211.328,-18.289,21.546,15.615,1.963,-3.501,8.249,1.827,-3.543,8.145,0.387,0.615,-0.701,54.577
'0:03.582',-66.454,1210.962,-16.84,20.379,14.252,1.962,-3.524,8.321,1.856,-3.543,8.184,-0.061,0.615,-0.701,54.581
'0:03.586',-65.67,1210.592,-16.085,19.749,14.155,1.913,-3.523,8.333,1.759,-3.55,8.231,-0.052,0.619,-0.701,54.585
'0:03.590',-62.67,1210.262,-15.698,18.931,14.315,1.865,-3.499,8.284,1.75,-3.56,8.212,-0.041,0.615,-0.676,54.589
'0:03.594',-61.608,1210.064,-14.95,17.556,13.737,1.816,-3.462,8.272,1.76,-3.513,8.105,-0.033,0.624,-0.712,54.593
'0:03.598',-68.346,1210.078,-14.702,16.114,13.107,1.817,-3.378,8.262,1.683,-3.472,8.172,-0.05,0.615,-0.695,54.597
'0:03.602',-78.868,1210.303,-14.477,14.873,12.875,1.793,-3.318,8.202,1.683,-3.433,8.192,-0.031,0.613,-0.747,54.601
'0:03.605',-79.376,1210.662,-14.123,13.944,12.575,1.781,-3.271,8.166,1.654,-3.346,8.114,-0.031,0.613,-0.747,54.605
'0:03.609',-64.839,1211.076,-13.349,13.168,12.052,1.806,-3.259,8.179,1.664,-3.318,8.095,-0.045,0.603,-0.726,54.609
'0:03.613',-65.116,1211.489,-12.817,12.692,11.232,1.867,-3.308,8.215,1.692,-3.346,8.183,-0.043,0.613,-0.699,54.613
'0:03.617',-68.346,1211.879,-12.122,12.948,10.527,1.988,-3.381,8.288,1.855,-3.386,8.234,-0.041,0.617,-0.714,54.617
'0:03.621',-59.716,1212.256,-11.774,12.759,9.755,2.109,-3.503,8.324,1.932,-3.465,8.255,-0.033,0.619,-0.731,54.62
'0:03.625',-61.332,1212.652,-10.759,12.912,9.627,2.218,-3.601,8.36,2.037,-3.631,8.284,-0.043,0.608,-0.735,54.624
'0:03.629',-65.393,1213.096,-10.024,12.588,9.558,2.205,-3.733,8.382,2.047,-3.689,8.303,-0.02,0.61,-0.705,54.628
'0:03.633',-66.454,1213.613,-9.392,12.246,10.367,2.155,-3.816,8.392,2.019,-3.797,8.234,-0.02,0.61,-0.705,54.632
'0:03.637',-68.346,1214.185,-8.807,12.166,10.821,2.069,-3.838,8.378,1.97,-3.883,8.232,-0.029,0.606,-0.743,54.636
'0:03.641',-73.469,1214.763,-8.016,11.372,10.862,1.971,-3.872,8.364,1.96,-3.893,8.261,-0.033,0.606,-0.71,54.64
'0:03.645',-59.439,1215.314,-7.212,10.461,10.447,1.909,-3.87,8.387,1.816,-3.909,8.278,-0.04,0.617,-0.716,54.644
'0:03.648',-66.454,1215.848,-6.812,9.056,10.046,1.823,-3.881,8.362,1.758,-3.937,8.287,-0.026,0.608,-0.701,54.648
'0:03.652',-68.346,1216.369,-5.753,8.2,9.963,1.787,-3.905,8.3,1.692,-3.918,8.217,-0.029,0.606,-0.733,54.652
'0:03.656',-68.069,1216.816,-5.101,7.382,10.087,1.787,-3.905,8.312,1.691,-3.947,8.247,-0.029,0.606,-0.733,54.656
'0:03.660',-55.655,1217.129,-4.582,6.159,9.478,1.799,-3.881,8.313,1.7,-3.907,8.296,-0.029,0.612,-0.701,54.659
'0:03.664',-43.011,1217.304,-3.838,4.962,9.267,1.86,-3.906,8.337,1.711,-3.938,8.218,-0.01,0.615,-0.754,54.663
'0:03.668',-51.363,1217.435,-3.236,4.064,9.472,1.848,-3.894,8.349,1.711,-3.899,8.208,-0.04,0.599,-0.739,54.667
'0:03.672',-52.979,1217.64,-2.693,3.385,9.887,1.861,-3.857,8.375,1.701,-3.907,8.267,-0.022,0.608,-0.705,54.671
'0:03.676',-51.363,1217.949,-2.091,2.518,10.025,1.873,-3.797,8.388,1.691,-3.878,8.276,-0.029,0.608,-0.712,54.675
'0:03.680',-53.532,1218.336,-1.783,1.332,9.731,1.886,-3.749,8.389,1.72,-3.8,8.287,-0.015,0.62,-0.739,54.679
'0:03.684',-41.118,1218.776,-1.254,0.77,9.821,1.862,-3.712,8.438,1.71,-3.79,8.336,-0.015,0.62,-0.739,54.683
'0:03.688',-51.64,1219.263,-1.036,0.642,10.049,1.838,-3.675,8.438,1.691,-3.78,8.326,-0.029,0.608,-0.741,54.687
'0:03.691',-69.961,1219.777,-0.334,0.037,10.354,1.813,-3.711,8.413,1.7,-3.751,8.336,-0.003,0.613,-0.71,54.691
'0:03.695',-66.454,1220.335,0.321,-0.44,10.073,1.837,-3.711,8.437,1.729,-3.731,8.376,-0.017,0.603,-0.756,54.695
'0:03.699',-68.069,1220.964,1.118,-0.684,10.063,1.837,-3.747,8.449,1.709,-3.789,8.395,-0.027,0.604,-0.71,54.699
'0:03.703',-56.486,1221.666,1.78,-0.556,10.219,1.898,-3.761,8.437,1.758,-3.791,8.317,-0.033,0.61,-0.718,54.702
'0:03.707',-68.346,1222.423,2.385,-0.959,10.028,1.984,-3.774,8.463,1.816,-3.791,8.338,-0.033,0.61,-0.718,54.706
'0:03.711',-71.3,1223.172,2.958,-1.797,9.6,2.032,-3.835,8.486,1.816,-3.869,8.337,-0.013,0.608,-0.705,54.71
'0:03.715',-82.375,1223.784,3.325,-2.163,9.613,2.032,-3.835,8.498,1.835,-3.899,8.318,-0.024,0.612,-0.739,54.714
'0:03.719',-66.177,1224.14,3.599,-2.481,10.215,1.971,-3.87,8.497,1.844,-3.917,8.415,-0.031,0.61,-0.703,54.718
'0:03.723',-71.023,1224.204,4.294,-2.383,10.907,1.958,-3.857,8.497,1.796,-3.916,8.415,-0.013,0.61,-0.768,54.722
'0:03.727',-68.623,1224.046,4.953,-2.75,10.918,1.922,-3.856,8.521,1.805,-3.897,8.405,-0.013,0.603,-0.731,54.726
'0:03.730',-57.547,1223.767,5.201,-3.782,11.111,1.897,-3.818,8.569,1.796,-3.876,8.444,-0.02,0.612,-0.703,54.73
'0:03.734',-67.792,1223.397,5.846,-4.033,11.011,1.91,-3.759,8.547,1.767,-3.837,8.454,-0.02,0.612,-0.703,54.734
'0:03.738',-79.376,1222.933,5.876,-4.919,11.056,1.886,-3.723,8.523,1.729,-3.74,8.424,-0.026,0.612,-0.714,54.738
'0:03.742',-82.375,1222.419,6.16,-5.652,11.461,1.875,-3.674,8.523,1.69,-3.719,8.434,-0.006,0.613,-0.735,54.742
'0:03.746',-68.346,1221.999,7.285,-6.685,11.824,1.875,-3.614,8.524,1.748,-3.652,8.445,-0.02,0.608,-0.722,54.745
'0:03.750',-77.53,1221.838,7.497,-6.887,11.592,1.912,-3.591,8.537,1.718,-3.622,8.494,-0.003,0.612,-0.71,54.749
'0:03.754',-54.594,1222.023,7.94,-7.058,11.571,1.949,-3.569,8.502,1.767,-3.594,8.456,-0.02,0.601,-0.743,54.753
'0:03.758',-62.393,1222.513,8.268,-7.693,11.73,1.974,-3.545,8.491,1.815,-3.616,8.388,-0.02,0.601,-0.743,54.757
'0:03.762',-31.658,1223.162,8.354,-8.2,12.135,1.925,-3.532,8.466,1.815,-3.606,8.417,-0.029,0.608,-0.708,54.761
'0:03.766',-35.719,1223.817,8.691,-8.414,12.685,1.877,-3.508,8.442,1.767,-3.546,8.417,-0.027,0.612,-0.72,54.765
'0:03.770',-46.241,1224.382,8.592,-8.304,13.422,1.841,-3.435,8.418,1.729,-3.517,8.387,-0.01,0.617,-0.708,54.769
'0:03.773',-38.673,1224.816,9.134,-8.524,13.263,1.829,-3.399,8.431,1.719,-3.43,8.388,-0.019,0.612,-0.735,54.773
'0:03.777',-44.903,1225.095,9.455,-8.598,12.675,1.89,-3.376,8.444,1.749,-3.421,8.379,-0.017,0.612,-0.699,54.777
'0:03.781',-60.547,1225.172,9.634,-8.543,12.488,1.963,-3.425,8.481,1.796,-3.47,8.389,-0.015,0.612,-0.762,54.781
'0:03.785',-64.839,1225.027,9.76,-8.237,12.45,2.024,-3.461,8.529,1.853,-3.507,8.497,-0.015,0.612,-0.762,54.784
'0:03.789',-63.777,1224.725,10.392,-8.5,12.319,2.048,-3.521,8.589,1.921,-3.528,8.488,-0.022,0.604,-0.731,54.788
'0:03.793',-58.886,1224.385,10.339,-8.995,12.727,2.023,-3.532,8.588,1.901,-3.557,8.507,-0.01,0.617,-0.685,54.792
'0:03.797',-61.608,1224.106,10.431,-9.3,13.315,1.937,-3.519,8.575,1.834,-3.595,8.476,-0.019,0.612,-0.693,54.796
'0:03.801',-57.547,1223.928,10.461,-9.282,13.865,1.84,-3.493,8.538,1.69,-3.544,8.484,-0.013,0.619,-0.737,54.8
'0:03.805',-62.67,1223.794,10.673,-9.594,14.19,1.779,-3.419,8.575,1.642,-3.514,8.474,-0.022,0.619,-0.714,54.804
'0:03.809',-64.562,1223.666,11.229,-9.856,13.522,1.767,-3.418,8.623,1.651,-3.494,8.532,-0.022,0.619,-0.714,54.808
'0:03.813',-76.422,1223.585,11.182,-10.15,12.959,1.841,-3.37,8.686,1.737,-3.436,8.573,0.002,0.617,-0.703,54.812
'0:03.816',-76.976,1223.656,11.51,-9.936,12.291,1.952,-3.36,8.724,1.756,-3.426,8.623,-0.012,0.604,-0.733,54.816
'0:03.820',-71.3,1223.928,11.49,-10.009,11.769,2.111,-3.316,8.727,1.92,-3.409,8.616,-0.017,0.615,-0.695,54.82
'0:03.824',-77.53,1224.335,11.626,-9.997,11.198,2.185,-3.281,8.741,1.987,-3.372,8.607,-0.026,0.62,-0.71,54.824
'0:03.828',-66.177,1224.698,11.735,-9.954,11.502,2.185,-3.281,8.741,2.035,-3.303,8.668,-0.005,0.615,-0.676,54.827
'0:03.832',-63.501,1224.826,11.784,-8.726,12.239,2.087,-3.303,8.739,1.948,-3.331,8.685,-0.017,0.619,-0.731,54.831
'0:03.836',-46.241,1224.601,11.728,-7.987,13.01,1.94,-3.336,8.7,1.938,-3.32,8.705,-0.017,0.619,-0.731,54.835
'0:03.840',-52.702,1224.012,12.016,-7.253,13.671,1.804,-3.394,8.648,1.766,-3.406,8.633,-0.013,0.615,-0.693,54.839
'0:03.844',-57.547,1223.172,12.224,-6.636,13.183,1.718,-3.429,8.586,1.679,-3.434,8.621,-0.006,0.627,-0.756,54.843
'0:03.848',-49.471,1222.285,12.32,-6.453,12.55,1.681,-3.428,8.598,1.574,-3.501,8.57,-0.02,0.612,-0.705,54.847
'0:03.852',-50.025,1221.555,12.307,-6.923,12.204,1.645,-3.428,8.549,1.526,-3.472,8.54,-0.013,0.624,-0.685,54.851
'0:03.855',-32.212,1221.105,11.596,-7.351,12.343,1.584,-3.391,8.537,1.497,-3.442,8.54,-0.006,0.617,-0.722,54.855
'0:03.859',-4.43,1220.903,11.424,-7.094,12.713,1.535,-3.354,8.524,1.469,-3.424,8.472,-0.006,0.617,-0.722,54.859
'0:03.863',7.153,1220.819,11.543,-6.257,12.516,1.621,-3.319,8.587,1.468,-3.374,8.511,-0.001,0.619,-0.762,54.863
'0:03.867',29.812,1220.719,11.573,-5.579,11.644,1.792,-3.368,8.721,1.564,-3.404,8.581,-0.015,0.617,-0.703,54.867
'0:03.871',28.704,1220.54,11.556,-5.438,10.551,1.926,-3.454,8.818,1.678,-3.433,8.7,0.002,0.624,-0.714,54.87
'0:03.875',32.766,1220.258,11.42,-5.212,9.89,2.035,-3.539,8.879,1.851,-3.522,8.741,-0.013,0.615,-0.718,54.874
'0:03.879',31.427,1219.892,11.126,-4.882,10.274,2.01,-3.551,8.842,1.851,-3.581,8.721,-0.01,0.62,-0.691,54.878
'0:03.883',42.18,1219.478,11.109,-4.473,11.174,1.962,-3.514,8.842,1.851,-3.571,8.721,-0.019,0.627,-0.699,54.882
'0:03.887',29.535,1219.062,10.789,-4.919,11.741,1.889,-3.428,8.855,1.793,-3.521,8.779,-0.019,0.627,-0.699,54.886
'0:03.891',26.812,1218.699,10.792,-4.888,11.692,1.816,-3.354,8.855,1.716,-3.451,8.807,-0.006,0.633,-0.71,54.89
'0:03.895',16.29,1218.477,10.683,-4.552,11.122,1.817,-3.318,8.88,1.697,-3.373,8.808,-0.013,0.624,-0.714,54.894
'0:03.898',-13.891,1218.487,10.507,-4.302,10.693,1.842,-3.318,8.892,1.707,-3.393,8.798,0.009,0.613,-0.733,54.898
'0:03.902',-33.273,1218.746,10.564,-4.76,9.651,1.865,-3.366,8.928,1.697,-3.392,8.827,0.015,0.613,-0.766,54.902
'0:03.906',-33.827,1219.223,10.358,-5.377,8.925,1.877,-3.414,8.927,1.735,-3.461,8.788,0.004,0.627,-0.72,54.906
'0:03.910',-26.535,1219.888,10.246,-6.043,8.721,1.877,-3.439,8.903,1.735,-3.461,8.808,0.004,0.627,-0.728,54.909
'0:03.914',-36.55,1220.719,10.1,-6.367,8.558,1.852,-3.427,8.89,1.735,-3.471,8.808,0.011,0.61,-0.728,54.913
'0:03.918',-59.993,1221.66,9.915,-6.85,8.309,1.816,-3.414,8.866,1.726,-3.451,8.788,0.002,0.619,-0.741,54.917
'0:03.922',-75.915,1222.648,9.69,-6.746,8.264,1.792,-3.366,8.855,1.668,-3.451,8.758,0.004,0.622,-0.71,54.921
'0:03.926',-79.653,1223.639,9.634,-6.764,8.157,1.768,-3.33,8.818,1.621,-3.382,8.748,0.008,0.633,-0.68,54.925
'0:03.930',-78.037,1224.564,9.495,-7.015,7.351,1.78,-3.331,8.782,1.678,-3.364,8.739,-0.005,0.629,-0.672,54.929
'0:03.934',-73.192,1225.293,9.73,-7.473,6.645,1.829,-3.321,8.747,1.698,-3.365,8.7,0.002,0.64,-0.714,54.933
'0:03.938',-76.699,1225.703,9.392,-7.791,6.379,1.841,-3.345,8.747,1.707,-3.356,8.691,0.002,0.64,-0.714,54.937
'0:03.941',-88.282,1225.747,9.339,-7.925,6.521,1.853,-3.357,8.747,1.784,-3.406,8.682,-0.015,0.626,-0.691,54.941
'0:03.945',-76.976,1225.501,9.078,-7.559,6.535,1.841,-3.382,8.722,1.737,-3.376,8.662,0.013,0.636,-0.678,54.945
'0:03.949',-64.562,1225.098,8.989,-7.718,6.199,1.853,-3.43,8.721,1.814,-3.436,8.633,-0.005,0.626,-0.701,54.949
'0:03.953',-61.608,1224.674,8.999,-7.883,5.711,1.84,-3.441,8.745,1.737,-3.444,8.671,-0.013,0.629,-0.685,54.952
'0:03.957',-60.547,1224.328,9.029,-8.237,5.777,1.767,-3.451,8.768,1.679,-3.473,8.65,-0.015,0.636,-0.693,54.956
'0:03.961',-67.792,1224.113,8.77,-8.372,6.306,1.718,-3.426,8.78,1.592,-3.451,8.678,-0.015,0.636,-0.708,54.96
'0:03.965',-57.824,1224.039,8.817,-9.276,6.303,1.645,-3.4,8.767,1.573,-3.451,8.698,-0.003,0.636,-0.708,54.964
'0:03.969',-65.393,1224.063,8.804,-9.74,5.649,1.682,-3.352,8.793,1.544,-3.41,8.736,-0.013,0.629,-0.701,54.968
'0:03.973',-64.008,1224.086,8.708,-9.917,5.161,1.695,-3.328,8.805,1.562,-3.371,8.776,0.006,0.636,-0.676,54.972
'0:03.977',-61.055,1224.066,8.479,-10.437,4.618,1.793,-3.295,8.807,1.62,-3.362,8.806,0.001,0.638,-0.735,54.976
'0:03.980',-34.658,1223.992,8.651,-10.602,4.217,1.866,-3.32,8.82,1.678,-3.353,8.778,-0.012,0.631,-0.693,54.98
'0:03.984',-40.842,1223.861,8.436,-10.944,3.964,1.878,-3.32,8.82,1.755,-3.355,8.76,-0.008,0.636,-0.666,54.984
'0:03.988',-48.641,1223.72,8.463,-10.828,3.764,1.915,-3.285,8.821,1.716,-3.353,8.828,-0.008,0.636,-0.666,54.988
'0:03.992',-48.133,1223.639,8.453,-10.602,3.667,1.928,-3.297,8.821,1.764,-3.374,8.799,-0.01,0.638,-0.668,54.992
'0:03.996',-60.778,1223.673,8.268,-10.351,2.823,1.977,-3.287,8.81,1.813,-3.347,8.751,-0.005,0.636,-0.712,54.995
'0:04.000',-64.008,1223.804,8.539,-10.364,2.311,1.989,-3.287,8.81,1.861,-3.318,8.762,-0.013,0.633,-0.689,54.999
'0:04.004',-8.214,1223.989,8.443,-9.905,1.83,1.964,-3.287,8.798,1.841,-3.327,8.781,-0.001,0.642,-0.737,55.003
'0:04.008',148.691,1224.177,8.708,-9.795,1.747,1.952,-3.311,8.749,1.833,-3.348,8.683,-0.01,0.627,-0.703,55.007
'0:04.012',361.944,1224.372,8.562,-9.6,1.038,1.952,-3.347,8.748,1.813,-3.377,8.692,-0.006,0.638,-0.672,55.011
'0:04.016',543.908,1224.601,9.118,-9.649,0.353,1.963,-3.396,8.76,1.823,-3.406,8.712,-0.006,0.638,-0.672,55.015
'0:04.020',622.915,1224.869,9.485,-9.698,-0.235,1.951,-3.419,8.783,1.794,-3.435,8.701,-0.015,0.651,-0.676,55.019
'0:04.023',448.75,1225.142,9.654,-9.856,-0.56,1.902,-3.43,8.782,1.804,-3.454,8.711,-0.006,0.647,-0.697,55.023
'0:04.027',114.726,1225.37,9.819,-10.254,-1.062,1.865,-3.43,8.721,1.707,-3.482,8.68,-0.022,0.638,-0.693,55.027
'0:04.031',-200.977,1225.538,9.816,-10.614,-1.321,1.816,-3.417,8.733,1.737,-3.454,8.671,0.004,0.638,-0.674,55.031
'0:04.035',-584.057,1225.663,10.355,-11.451,-1.961,1.792,-3.393,8.709,1.669,-3.424,8.66,-0.008,0.631,-0.718,55.034
'0:04.039',-923.481,1225.797,10.325,-12.007,-2.601,1.792,-3.345,8.673,1.621,-3.442,8.65,-0.008,0.631,-0.718,55.038
'0:04.043',-1003.041,1225.979,10.673,-12.484,-3.366,1.805,-3.334,8.662,1.66,-3.415,8.621,-0.019,0.636,-0.682,55.042
'0:04.047',-915.128,1226.167,10.878,-12.948,-4.04,1.83,-3.311,8.626,1.69,-3.32,8.505,-0.022,0.64,-0.678,55.046
'0:04.051',-733.164,1226.254,11.278,-13.621,-4.698,1.83,-3.263,8.627,1.709,-3.301,8.506,-0.008,0.645,-0.662,55.05
'0:04.055',-542.57,1226.14,11.467,-13.975,-5.39,1.842,-3.24,8.591,1.738,-3.301,8.526,-0.013,0.64,-0.689,55.054
'0:04.059',-329.871,1225.854,11.814,-13.761,-5.905,1.831,-3.216,8.592,1.728,-3.31,8.555,-0.015,0.642,-0.653,55.058
'0:04.063',-152.983,1225.528,12.128,-13.773,-6.31,1.83,-3.228,8.579,1.767,-3.322,8.487,-0.006,0.645,-0.722,55.062
'0:04.066',-39.503,1225.33,12.38,-13.731,-7.022,1.855,-3.228,8.567,1.728,-3.33,8.545,-0.006,0.645,-0.722,55.066
'0:04.070',-11.722,1225.34,12.734,-13.401,-7.939,1.879,-3.253,8.567,1.757,-3.331,8.497,-0.027,0.631,-0.689,55.07
'0:04.074',4.43,1225.525,13.333,-12.551,-8.883,1.867,-3.253,8.555,1.757,-3.263,8.526,-0.019,0.643,-0.659,55.074
'0:04.078',20.352,1225.763,13.531,-13.052,-9.171,1.842,-3.265,8.554,1.757,-3.311,8.546,-0.036,0.649,-0.668,55.077
'0:04.082',46.518,1225.884,13.766,-13.352,-9.572,1.77,-3.203,8.518,1.652,-3.292,8.446,-0.019,0.645,-0.685,55.081
'0:04.086',43.287,1225.747,13.948,-13.578,-9.523,1.721,-3.131,8.495,1.633,-3.243,8.417,-0.034,0.645,-0.687,55.085
'0:04.090',52.979,1225.256,14.219,-13.437,-10.053,1.649,-3.069,8.495,1.527,-3.153,8.455,-0.034,0.645,-0.687,55.089
'0:04.094',51.917,1224.352,14.52,-13.419,-11.09,1.698,-3.034,8.52,1.537,-3.027,8.466,-0.01,0.643,-0.659,55.093
'0:04.098',67.792,1223.038,14.97,-13.162,-12.391,1.784,-3.023,8.546,1.604,-3.057,8.477,-0.022,0.636,-0.697,55.097
'0:04.102',79.145,1221.424,15.45,-13.022,-13.353,1.942,-3.063,8.547,1.767,-3.079,8.489,-0.038,0.645,-0.653,55.101
'0:04.105',76.699,1219.71,15.692,-12.741,-14.207,2.077,-3.089,8.573,1.863,-3.1,8.471,-0.036,0.647,-0.67,55.105
'0:04.109',69.684,1218.134,15.678,-12.637,-15.069,2.15,-3.127,8.585,2.017,-3.112,8.513,-0.031,0.645,-0.643,55.109
'0:04.113',67.285,1216.904,16.042,-12.056,-15.636,2.224,-3.116,8.623,2.055,-3.19,8.513,-0.034,0.642,-0.68,55.113
'0:04.117',82.375,1216.158,16.171,-11.353,-15.771,2.211,-3.128,8.611,2.074,-3.19,8.562,-0.034,0.642,-0.68,55.117
'0:04.121',79.145,1215.929,16.433,-10.608,-15.802,2.163,-3.102,8.622,2.007,-3.13,8.581,-0.043,0.651,-0.649,55.12
