'Elapsed time','chest_ecg','wrist_ppg','wrist_gyro_x','wrist_gyro_y','wrist_gyro_z','wrist_low_noise_accelerometer_x','wrist_low_noise_accelerometer_y','wrist_low_noise_accelerometer_z','wrist_wide_range_accelerometer_x','wrist_wide_range_accelerometer_y','wrist_wide_range_accelerometer_z','wrist_mag_x','wrist_mag_y','wrist_mag_z','sample_times_for_all_signals_apart_from_ecg'
'0:00.000',61.872,1210.915,8.923,-5.577,5.127,2.201,-2.966,8.879,2.091,-3,8.827,-0.052,0.643,-0.657,46.999
'0:00.004',28.704,1214.886,8.807,-5.803,4.78,2.163,-2.99,8.83,2.034,-3.019,8.797,-0.038,0.649,-0.703,47.003
'0:00.008',6.618,1218.649,8.701,-5.69,4.699,2.102,-3.013,8.829,2.044,-3.031,8.729,-0.038,0.649,-0.703,47.007
'0:00.012',2.545,1221.929,8.423,-5.435,4.766,2.053,-3.023,8.84,1.996,-3.019,8.757,-0.054,0.635,-0.674,47.011
'0:00.016',-15.507,1224.609,8.559,-5.313,4.806,1.991,-3.059,8.815,1.881,-3.106,8.706,-0.043,0.651,-0.639,47.015
'0:00.020',-18.209,1226.647,8.154,-5.652,4.666,2.003,-3.094,8.85,1.852,-3.134,8.724,-0.05,0.652,-0.655,47.019
'0:00.023',-34.108,1228.064,8.085,-6.368,3.677,2.028,-3.106,8.887,1.851,-3.171,8.812,-0.043,0.659,-0.668,47.023
'0:00.027',-41.94,1228.951,7.863,-6.424,3.269,2.076,-3.119,8.887,1.938,-3.183,8.803,-0.052,0.642,-0.67,47.027
'0:00.031',-47.579,1229.414,7.548,-6.33,3.409,2.064,-3.144,8.85,1.938,-3.183,8.803,-0.052,0.647,-0.637,47.031
'0:00.035',-33.834,1229.581,7.273,-6.34,3.69,2.052,-3.083,8.863,1.919,-3.125,8.774,-0.027,0.647,-0.637,47.034
'0:00.039',-19.541,1229.572,7.128,-6.538,4.171,2.04,-3.058,8.912,1.899,-3.132,8.862,-0.036,0.642,-0.691,47.038
'0:00.043',-17.935,1229.485,6.932,-6.688,3.777,2.017,-2.985,8.901,1.87,-3.016,8.823,-0.05,0.651,-0.645,47.042
'0:00.047',-24.944,1229.356,6.389,-6.792,3.944,1.981,-2.914,8.805,1.87,-2.948,8.853,-0.052,0.654,-0.662,47.046
'0:00.051',-30.858,1229.139,6.038,-7.131,4.519,1.993,-2.889,8.902,1.851,-2.958,8.814,-0.038,0.647,-0.641,47.05
'0:00.055',-33.285,1228.843,6.005,-7.235,3.984,2.055,-2.84,9.001,1.87,-2.908,8.892,-0.045,0.651,-0.668,47.054
'0:00.059',-18.992,1228.597,6.237,-6.764,3.362,2.128,-2.842,9.026,2.014,-2.871,8.925,-0.045,0.651,-0.668,47.058
'0:00.063',-17.935,1228.568,5.558,-6.698,2.941,2.263,-2.857,9.028,2.11,-2.863,8.916,-0.052,0.645,-0.639,47.062
'0:00.066',-9.829,1228.789,5.439,-6.406,2.279,2.36,-2.895,9.028,2.148,-2.912,8.946,-0.038,0.656,-0.695,47.066
'0:00.070',-16.055,1229.147,4.991,-5.718,2.353,2.397,-2.896,9.017,2.187,-2.941,8.966,-0.052,0.645,-0.666,47.07
'0:00.074',-17.113,1229.526,4.554,-5.84,2.56,2.385,-2.92,8.992,2.206,-2.951,8.956,-0.05,0.656,-0.639,47.074
'0:00.078',-16.839,1229.881,4.554,-6.057,2.273,2.323,-2.931,9.003,2.177,-2.951,8.936,-0.059,0.649,-0.639,47.077
'0:00.082',-16.055,1230.156,4.379,-6.085,2.4,2.263,-2.87,8.967,2.187,-2.913,8.927,-0.043,0.654,-0.668,47.081
'0:00.086',-10.377,1230.36,4.071,-6.368,1.611,2.251,-2.858,8.918,2.11,-2.893,8.897,-0.043,0.654,-0.668,47.085
'0:00.090',-18.209,1230.689,3.869,-6.472,0.782,2.275,-2.847,8.919,2.13,-2.904,8.848,-0.05,0.647,-0.664,47.089
'0:00.094',-2.31,1231.448,3.895,-6.349,0.568,2.275,-2.907,8.906,2.149,-2.913,8.858,-0.033,0.654,-0.645,47.093
'0:00.098',-16.055,1232.848,3.64,-6.311,0.187,2.274,-2.944,8.893,2.188,-2.992,8.839,-0.043,0.638,-0.678,47.097
'0:00.102',-13.353,1234.844,3.425,-6.396,-0.074,2.274,-2.98,8.868,2.169,-3.023,8.75,-0.057,0.651,-0.639,47.101
'0:00.105',-9.555,1237.136,3.229,-6.651,-0.388,2.249,-2.991,8.892,2.169,-2.963,8.809,-0.061,0.658,-0.649,47.105
'0:00.109',-19.815,1239.312,3.282,-6.848,-0.802,2.237,-2.978,8.94,2.159,-2.972,8.858,-0.061,0.658,-0.649,47.109
'0:00.113',-19.541,1241.004,3.133,-6.651,-0.922,2.188,-2.952,8.952,2.139,-2.991,8.857,-0.045,0.652,-0.626,47.113
'0:00.117',-14.959,1241.962,3.355,-6.528,-1.31,2.188,-2.953,8.94,2.072,-3.01,8.827,-0.05,0.643,-0.664,47.117
'0:00.121',-27.646,1242.066,3.345,-6.952,-1.738,2.164,-2.941,8.904,2.063,-3.01,8.827,-0.062,0.651,-0.637,47.12
'0:00.125',-40.021,1241.291,3.491,-7.301,-2.152,2.189,-2.918,8.868,2.054,-2.973,8.729,-0.045,0.652,-0.693,47.124
'0:00.129',-36.262,1239.72,3.289,-7.866,-2.413,2.152,-2.907,8.795,2.092,-2.973,8.739,-0.05,0.651,-0.649,47.128
'0:00.133',-37.867,1237.574,3.474,-8.016,-2.741,2.14,-2.919,8.746,2.035,-2.935,8.651,-0.048,0.652,-0.632,47.132
'0:00.137',-31.954,1235.215,3.657,-8.148,-3.249,2.128,-2.884,8.711,2.016,-2.945,8.621,-0.048,0.652,-0.632,47.136
'0:00.141',-26.55,1233.069,3.683,-8.064,-4.078,2.165,-2.861,8.699,2.065,-2.936,8.612,-0.052,0.654,-0.637,47.14
'0:00.145',-23.574,1231.473,3.945,-7.743,-4.706,2.214,-2.874,8.712,2.093,-2.936,8.652,-0.054,0.656,-0.662,47.144
'0:00.148',-21.42,1230.589,3.902,-7.319,-5.308,2.238,-2.898,8.724,2.112,-2.954,8.72,-0.061,0.651,-0.651,47.148
'0:00.152',-22.791,1230.368,3.862,-7.131,-5.675,2.275,-2.91,8.748,2.141,-3.004,8.662,-0.041,0.652,-0.628,47.152
'0:00.156',-30.583,1230.568,4.097,-6.773,-6.103,2.25,-2.958,8.723,2.15,-3.004,8.691,-0.059,0.643,-0.657,47.156
'0:00.160',-39.512,1230.843,4.395,-6.848,-6.564,2.237,-2.97,8.723,2.141,-3.004,8.711,-0.059,0.643,-0.657,47.159
'0:00.164',-37.867,1230.939,4.756,-6.679,-6.711,2.176,-2.993,8.721,2.112,-3.043,8.632,-0.068,0.652,-0.626,47.163
'0:00.168',-39.238,1230.802,5.028,-6.858,-7.547,2.164,-2.945,8.698,2.092,-3.032,8.69,-0.071,0.654,-0.641,47.167
'0:00.172',-41.391,1230.531,5.177,-7.112,-8.068,2.152,-2.944,8.734,2.025,-3.022,8.67,-0.054,0.656,-0.62,47.171
'0:00.176',-46.521,1230.256,5.68,-7.15,-8.63,2.128,-2.895,8.735,2.016,-2.973,8.67,-0.062,0.649,-0.655,47.175
'0:00.180',-37.358,1230.051,5.939,-7.084,-9.125,2.116,-2.895,8.71,1.967,-2.961,8.728,-0.045,0.661,-0.626,47.179
'0:00.184',-52.434,1229.935,6.253,-7.197,-9.913,2.152,-2.921,8.686,2.036,-2.955,8.602,-0.059,0.661,-0.689,47.183
'0:00.188',-39.747,1229.893,7.105,-7.536,-10.676,2.189,-2.934,8.674,2.045,-2.956,8.583,-0.059,0.661,-0.689,47.187
'0:00.191',-43.271,1229.91,7.234,-7.564,-11.371,2.225,-2.971,8.65,2.112,-2.976,8.623,-0.066,0.651,-0.641,47.191
'0:00.195',-47.03,1229.993,7.691,-7.866,-12.246,2.25,-2.948,8.638,2.122,-2.976,8.584,-0.057,0.654,-0.614,47.195
'0:00.199',-51.103,1230.085,8.32,-7.875,-12.554,2.25,-2.912,8.627,2.19,-2.997,8.565,-0.059,0.654,-0.609,47.199
'0:00.203',-65.631,1230.06,8.267,-8.28,-13.008,2.214,-2.828,8.568,2.094,-2.92,8.476,-0.062,0.663,-0.664,47.202
'0:00.207',-55.959,1229.872,8.337,-8.054,-12.888,2.13,-2.743,8.507,2.066,-2.851,8.496,-0.076,0.651,-0.639,47.206
'0:00.211',-61.872,1229.597,8.376,-8.186,-12.808,2.082,-2.61,8.497,2.037,-2.724,8.506,-0.076,0.651,-0.639,47.21
'0:00.215',-48.949,1229.314,8.469,-7.762,-13.062,2.12,-2.55,8.523,1.98,-2.676,8.437,-0.05,0.658,-0.637,47.214
'0:00.219',-65.631,1228.985,8.857,-7.169,-14.078,2.193,-2.539,8.573,2.066,-2.628,8.498,-0.071,0.649,-0.649,47.218
'0:00.223',-62.694,1228.493,9.095,-6.764,-15.114,2.352,-2.59,8.646,2.18,-2.618,8.607,-0.073,0.658,-0.618,47.222
'0:00.227',-71.035,1227.776,9.079,-5.822,-15.956,2.485,-2.688,8.707,2.296,-2.736,8.618,-0.076,0.663,-0.637,47.226
'0:00.230',-63.477,1226.934,9.509,-4.569,-15.997,2.583,-2.761,8.743,2.41,-2.776,8.678,-0.071,0.661,-0.649,47.23
'0:00.234',-66.453,1226.105,9.605,-3.467,-16.077,2.643,-2.822,8.792,2.487,-2.795,8.748,-0.08,0.652,-0.649,47.234
'0:00.238',-64.848,1225.351,9.82,-2.732,-15.509,2.606,-2.857,8.79,2.429,-2.901,8.756,-0.08,0.652,-0.649,47.238
'0:00.242',-60.775,1224.671,10.529,-1.95,-14.76,2.557,-2.867,8.814,2.409,-2.91,8.775,-0.059,0.656,-0.624,47.242
'0:00.246',-54.862,1224.125,10.758,-2.044,-14.506,2.483,-2.879,8.764,2.362,-2.91,8.735,-0.066,0.665,-0.672,47.245
'0:00.250',-64.848,1223.775,11.129,-2.694,-14.84,2.434,-2.866,8.751,2.304,-2.879,8.763,-0.08,0.652,-0.628,47.249
'0:00.254',-66.453,1223.684,11.503,-3.561,-15.602,2.435,-2.854,8.74,2.333,-2.89,8.744,-0.073,0.661,-0.616,47.253
'0:00.258',-63.203,1223.875,11.702,-4.201,-16.137,2.483,-2.866,8.813,2.304,-2.88,8.734,-0.078,0.656,-0.603,47.257
'0:00.262',-74.794,1224.334,12.165,-4.691,-16.271,2.496,-2.853,8.862,2.352,-2.87,8.764,-0.078,0.656,-0.603,47.261
'0:00.266',-85.328,1224.971,12.351,-5.209,-16.565,2.532,-2.866,8.874,2.361,-2.86,8.784,-0.073,0.654,-0.645,47.265
'0:00.270',-81.295,1225.655,12.371,-6.076,-16.685,2.557,-2.842,8.911,2.381,-2.889,8.804,-0.085,0.659,-0.618,47.269
'0:00.273',-84.232,1226.259,12.874,-6.538,-16.672,2.606,-2.83,8.96,2.438,-2.889,8.863,-0.071,0.661,-0.662,47.273
'0:00.277',-79.415,1226.755,13.209,-6.716,-16.632,2.643,-2.795,8.949,2.428,-2.859,8.922,-0.09,0.649,-0.637,47.277
'0:00.281',-73.463,1227.143,13.325,-7.461,-16.21,2.668,-2.76,8.926,2.534,-2.831,8.924,-0.083,0.661,-0.588,47.281
'0:00.285',-68.881,1227.451,13.769,-8.403,-16.251,2.73,-2.738,8.903,2.544,-2.765,8.856,-0.097,0.668,-0.622,47.284
'0:00.289',-81.804,1227.764,13.778,-8.921,-16.15,2.779,-2.702,8.929,2.63,-2.757,8.848,-0.097,0.668,-0.622,47.288
'0:00.293',-83.723,1228.109,13.755,-9.015,-15.963,2.816,-2.691,8.941,2.63,-2.708,8.878,-0.078,0.672,-0.597,47.292
'0:00.297',-78.319,1228.397,14.004,-9.222,-15.749,2.84,-2.667,8.954,2.659,-2.718,8.868,-0.096,0.665,-0.63,47.296
'0:00.301',-88.03,1228.497,13.971,-9.439,-15.455,2.84,-2.691,8.942,2.668,-2.708,8.898,-0.087,0.665,-0.599,47.3
'0:00.305',-83.997,1228.397,14.209,-9.853,-15.041,2.84,-2.715,8.953,2.688,-2.718,8.898,-0.08,0.659,-0.643,47.304
'0:00.309',-82.626,1228.18,14.378,-10.23,-14.787,2.815,-2.75,8.977,2.659,-2.746,8.917,-0.097,0.659,-0.605,47.308
'0:00.313',-85.328,1227.876,14.736,-10.447,-14.299,2.815,-2.774,8.988,2.697,-2.776,8.937,-0.097,0.659,-0.605,47.312
'0:00.316',-77.77,1227.376,14.646,-11.003,-14.339,2.79,-2.797,8.988,2.668,-2.785,8.917,-0.099,0.666,-0.609,47.316
'0:00.320',-70.487,1226.563,15.021,-11.775,-14.178,2.815,-2.762,9.001,2.648,-2.803,8.975,-0.096,0.666,-0.58,47.32
'0:00.324',-67.55,1225.492,15.054,-12.51,-14.232,2.839,-2.786,9.001,2.697,-2.844,8.926,-0.096,0.675,-0.622,47.324
'0:00.328',-67.276,1224.375,15.269,-13.301,-14.025,2.851,-2.81,9.013,2.716,-2.854,8.927,-0.097,0.658,-0.586,47.327
'0:00.332',-69.704,1223.404,15.627,-13.32,-13.797,2.864,-2.8,8.964,2.687,-2.843,8.946,-0.089,0.672,-0.611,47.331
'0:00.336',-76.439,1222.65,15.796,-14.168,-13.249,2.852,-2.801,8.867,2.726,-2.797,8.869,-0.106,0.663,-0.614,47.335
'0:00.340',-83.449,1222.096,15.845,-15.487,-13.356,2.888,-2.791,8.832,2.727,-2.828,8.761,-0.106,0.663,-0.614,47.339
'0:00.344',-81.804,1221.717,16.1,-16.673,-13.851,2.876,-2.802,8.844,2.737,-2.838,8.761,-0.101,0.67,-0.586,47.343
'0:00.348',-84.232,1221.454,15.6,-17.276,-13.617,2.84,-2.717,8.832,2.737,-2.76,8.762,-0.11,0.665,-0.595,47.347
'0:00.352',-56.742,1221.196,15.17,-17.653,-12.701,2.731,-2.597,8.7,2.622,-2.663,8.673,-0.104,0.67,-0.609,47.351
'0:00.355',-46.756,1220.762,14.64,-18.209,-11.651,2.647,-2.488,8.664,2.527,-2.595,8.584,-0.115,0.668,-0.603,47.355
'0:00.359',-50.281,1220,14.65,-18.454,-11.237,2.575,-2.34,8.751,2.469,-2.428,8.623,-0.092,0.672,-0.58,47.359
'0:00.363',-46.247,1218.916,14.527,-18.058,-11.224,2.588,-2.232,8.777,2.45,-2.36,8.614,-0.092,0.67,-0.624,47.363
'0:00.367',-50.829,1217.732,14.136,-17.446,-11.07,2.651,-2.149,8.792,2.478,-2.224,8.674,-0.113,0.67,-0.624,47.367
'0:00.371',-57.29,1216.749,13.778,-17.107,-10.963,2.749,-2.127,8.806,2.565,-2.196,8.666,-0.125,0.663,-0.576,47.37
'0:00.375',-62.42,1216.207,13.381,-16.796,-10.963,2.884,-2.045,8.857,2.632,-2.157,8.736,-0.125,0.67,-0.586,47.374
'0:00.379',-49.184,1216.195,13.275,-16.071,-10.983,2.995,-2.034,8.907,2.795,-2.091,8.768,-0.108,0.674,-0.561,47.378
'0:00.383',-30.858,1216.645,12.589,-15.496,-10.722,3.105,-1.976,8.946,2.882,-2.083,8.77,-0.12,0.665,-0.601,47.382
'0:00.387',-20.911,1217.395,12.159,-14.177,-10.087,3.106,-1.952,8.959,2.92,-2.025,8.81,-0.125,0.666,-0.568,47.386
'0:00.391',4.464,1218.27,11.748,-13.226,-9.265,3.131,-1.893,8.912,2.949,-1.986,8.811,-0.125,0.666,-0.568,47.39
'0:00.395',16.839,1219.133,11.106,-12.303,-8.677,3.095,-1.833,8.876,2.911,-1.938,8.762,-0.117,0.675,-0.63,47.394
'0:00.398',16.839,1219.862,10.586,-11.304,-8.363,3.07,-1.809,8.864,2.882,-1.89,8.703,-0.125,0.661,-0.603,47.398
'0:00.402',20.911,1220.32,10.572,-11.172,-8.704,3.071,-1.797,8.828,2.873,-1.841,8.703,-0.122,0.677,-0.568,47.402
'0:00.406',28.43,1220.395,9.678,-10.55,-8.496,2.998,-1.773,8.743,2.854,-1.823,8.615,-0.131,0.67,-0.57,47.406
'0:00.410',18.992,1220.075,8.479,-8.827,-7.794,2.937,-1.688,8.719,2.787,-1.764,8.615,-0.117,0.679,-0.595,47.409
'0:00.414',16.564,1219.499,7.737,-7.687,-7.901,2.937,-1.712,8.743,2.739,-1.754,8.565,-0.131,0.666,-0.584,47.413
'0:00.418',18.483,1218.924,7.267,-6.641,-8.296,2.937,-1.724,8.731,2.826,-1.795,8.566,-0.131,0.666,-0.584,47.417
'0:00.422',6.618,1218.603,6.591,-5.379,-8.503,2.998,-1.75,8.707,2.826,-1.765,8.576,-0.115,0.675,-0.557,47.421
'0:00.426',-2.819,1218.649,5.743,-4.701,-8.637,3.071,-1.812,8.695,2.894,-1.845,8.528,-0.129,0.666,-0.595,47.425
'0:00.430',-28.978,1219.037,5.104,-3.674,-8.65,3.095,-1.824,8.731,2.912,-1.912,8.576,-0.139,0.666,-0.561,47.429
'0:00.434',-31.68,1219.687,4.14,-2.006,-8.349,3.082,-1.871,8.778,2.922,-1.903,8.577,-0.139,0.675,-0.578,47.433
'0:00.438',-29.8,1220.541,3.643,-0.518,-8.195,3.033,-1.893,8.838,2.931,-1.931,8.645,-0.122,0.674,-0.557,47.437
'0:00.441',-41.666,1221.617,3.011,0.989,-7.808,2.959,-1.914,8.873,2.863,-1.928,8.741,-0.122,0.674,-0.557,47.441
'0:00.445',-66.179,1223.025,2.56,2.44,-7.373,2.873,-1.911,8.92,2.757,-1.925,8.798,-0.132,0.668,-0.593,47.445
'0:00.449',-76.165,1224.846,1.961,3.419,-7.313,2.812,-1.933,8.955,2.718,-1.934,8.807,-0.129,0.677,-0.563,47.449
'0:00.453',-80.472,1227.013,1.553,3.806,-7.126,2.799,-1.945,8.979,2.689,-1.991,8.826,-0.125,0.674,-0.62,47.452
'0:00.457',-94.491,1229.276,0.941,4.409,-7.387,2.763,-1.967,9.014,2.631,-1.989,8.874,-0.134,0.663,-0.58,47.456
'0:00.461',-88.813,1231.327,0.484,4.927,-7.707,2.811,-2.004,9.026,2.66,-2.058,8.854,-0.125,0.677,-0.547,47.46
'0:00.465',-82.9,1232.898,0.036,5.313,-7.908,2.86,-2.041,9.014,2.679,-2.118,8.805,-0.127,0.668,-0.553,47.464
'0:00.469',-78.867,1233.852,-0.59,5.652,-8.209,2.896,-2.091,8.99,2.727,-2.127,8.855,-0.127,0.668,-0.553,47.468
'0:00.473',-81.804,1234.186,-0.908,6.575,-8.236,2.957,-2.092,8.991,2.794,-2.147,8.895,-0.124,0.677,-0.599,47.472
'0:00.477',-92.064,1233.973,-1.646,6.877,-8.409,3.03,-2.141,9.015,2.823,-2.177,8.856,-0.138,0.668,-0.572,47.476
'0:00.480',-85.876,1233.377,-1.984,7.282,-8.704,3.078,-2.19,9.039,2.938,-2.246,8.896,-0.12,0.677,-0.584,47.48
'0:00.484',-82.352,1232.627,-2.726,8.035,-8.804,3.103,-2.214,9.075,2.957,-2.217,8.916,-0.134,0.663,-0.588,47.484
'0:00.488',-80.747,1231.902,-3.193,8.356,-8.369,3.065,-2.285,9.098,2.899,-2.302,8.993,-0.127,0.677,-0.561,47.488
'0:00.492',-82.9,1231.239,-3.643,8.582,-8.476,2.991,-2.306,9.144,2.851,-2.379,9.011,-0.127,0.677,-0.561,47.492
'0:00.496',-90.732,1230.589,-3.951,8.893,-8.182,2.918,-2.317,9.131,2.803,-2.407,9.01,-0.145,0.679,-0.572,47.495
'0:00.500',-83.174,1229.964,-4.369,8.827,-7.808,2.832,-2.35,9.154,2.716,-2.425,9.028,-0.125,0.682,-0.557,47.499
'0:00.504',-66.179,1229.506,-4.922,8.356,-7.741,2.757,-2.408,9.2,2.619,-2.422,9.055,-0.131,0.668,-0.593,47.503
'0:00.508',-67.276,1229.351,-4.958,8.035,-7.634,2.635,-2.441,9.234,2.513,-2.478,9.131,-0.115,0.674,-0.561,47.507
'0:00.512',-68.059,1229.501,-5.18,7.96,-6.337,2.475,-2.452,9.086,2.427,-2.496,9.091,-0.12,0.672,-0.618,47.511
'0:00.516',-72.641,1229.839,-5.637,6.839,-4.866,2.341,-2.43,8.819,2.323,-2.49,8.835,-0.131,0.67,-0.576,47.515
'0:00.520',-48.949,1230.289,-5.667,4.823,-4.626,2.391,-2.337,8.676,2.277,-2.396,8.62,-0.131,0.67,-0.576,47.519
'0:00.523',-50.006,1230.881,-6.098,2.76,-6.264,2.613,-2.246,8.705,2.373,-2.369,8.593,-0.132,0.677,-0.576,47.523
'0:00.527',-52.16,1231.643,-7.211,1.959,-8.028,2.932,-2.203,8.807,2.632,-2.256,8.647,-0.122,0.675,-0.549,47.527
'0:00.531',-21.42,1232.564,-8.525,3.335,-8.61,3.128,-2.194,8.894,2.786,-2.277,8.698,-0.124,0.67,-0.599,47.531
'0:00.535',67.002,1233.606,-9.142,5.36,-7.092,3.226,-2.147,8.933,2.948,-2.297,8.828,-0.136,0.665,-0.57,47.534
'0:00.539',229.278,1234.648,-9.579,7.253,-4.9,3.226,-2.146,9.018,3.025,-2.267,8.907,-0.12,0.677,-0.628,47.538
'0:00.543',369.468,1235.473,-9.579,7.885,-4.292,3.275,-2.144,9.188,3.014,-2.246,8.995,-0.12,0.677,-0.628,47.542
'0:00.547',437.958,1235.903,-9.953,7.819,-4.425,3.348,-2.155,9.31,3.177,-2.218,9.096,-0.138,0.665,-0.597,47.546
'0:00.551',295.34,1235.898,-10.486,8.101,-4.205,3.323,-2.179,9.272,3.129,-2.225,9.163,-0.131,0.668,-0.568,47.55
'0:00.555',7.401,1235.586,-10.774,8.054,-3.088,3.225,-2.191,9.174,3.091,-2.256,9.055,-0.131,0.675,-0.576,47.554
'0:00.559',-225.519,1235.119,-11.129,7.734,-1.838,3.066,-2.2,9.123,3.043,-2.294,9.064,-0.124,0.679,-0.601,47.558
'0:00.563',-536.365,1234.573,-10.738,7.272,-0.869,2.932,-2.186,9.097,2.851,-2.311,9.002,-0.131,0.666,-0.601,47.562
'0:00.566',-823.481,1233.981,-10.761,6.349,-0.421,2.821,-2.208,9.047,2.688,-2.262,8.902,-0.113,0.674,-0.576,47.566
'0:00.570',-915.937,1233.415,-10.89,5.351,-0.622,2.747,-2.256,8.985,2.64,-2.291,8.862,-0.113,0.674,-0.576,47.57
'0:00.574',-838.049,1232.952,-11.235,4.145,-1.029,2.698,-2.304,8.898,2.573,-2.33,8.802,-0.118,0.654,-0.62,47.574
'0:00.578',-681.137,1232.652,-11.98,2.798,-0.521,2.624,-2.328,8.836,2.525,-2.338,8.82,-0.131,0.665,-0.572,47.577
'0:00.582',-518.039,1232.544,-12.036,2.421,-0.334,2.612,-2.352,8.787,2.449,-2.436,8.701,-0.132,0.668,-0.588,47.581
'0:00.586',-357.094,1232.623,-12.397,2.223,-0.689,2.636,-2.341,8.788,2.459,-2.437,8.643,-0.118,0.668,-0.574,47.585
'0:00.590',-182.639,1232.848,-12.921,2.421,-0.622,2.697,-2.33,8.801,2.507,-2.398,8.693,-0.127,0.668,-0.603,47.589
'0:00.594',-79.65,1233.044,-13.467,2.553,-0.388,2.746,-2.344,8.789,2.555,-2.381,8.654,-0.127,0.668,-0.603,47.593
'0:00.598',-40.569,1232.998,-14.05,3.109,-0.047,2.784,-2.285,8.755,2.545,-2.37,8.684,-0.12,0.663,-0.578,47.597
'0:00.602',-33.285,1232.61,-14.742,3.514,0.588,2.796,-2.249,8.755,2.594,-2.314,8.607,-0.118,0.675,-0.639,47.601
'0:00.605',-7.949,1231.923,-15.193,4.361,1.05,2.785,-2.201,8.768,2.565,-2.303,8.665,-0.129,0.658,-0.607,47.605
'0:00.609',11.474,1231.035,-15.415,5.398,1.497,2.834,-2.153,8.794,2.642,-2.265,8.657,-0.125,0.665,-0.582,47.609
'0:00.613',31.954,1230.018,-16.054,6.547,2.012,2.81,-2.117,8.794,2.652,-2.169,8.638,-0.134,0.661,-0.584,47.613
'0:00.617',27.098,1228.951,-16.627,7.951,2.727,2.835,-2.093,8.807,2.585,-2.13,8.608,-0.117,0.665,-0.618,47.617
'0:00.621',20.637,1227.897,-16.908,9.1,3.162,2.811,-2.069,8.783,2.642,-2.15,8.609,-0.117,0.665,-0.618,47.62
'0:00.625',25.728,1226.901,-17.362,9.74,3.636,2.823,-2.069,8.795,2.632,-2.139,8.648,-0.131,0.659,-0.609,47.624
'0:00.629',55.685,1226.092,-17.905,10.579,4.111,2.859,-2.081,8.844,2.651,-2.178,8.687,-0.106,0.663,-0.599,47.628
'0:00.633',75.068,1225.655,-18.459,11.982,4.145,2.896,-2.105,8.893,2.689,-2.177,8.746,-0.115,0.652,-0.63,47.632
'0:00.637',59.992,1225.667,-18.737,12.962,4.786,2.932,-2.166,8.88,2.689,-2.207,8.726,-0.132,0.656,-0.591,47.636
'0:00.641',58.112,1226.03,-19.187,13.508,5.214,2.931,-2.238,8.891,2.785,-2.276,8.757,-0.127,0.663,-0.603,47.64
'0:00.645',60.266,1226.501,-19.492,13.687,5.167,2.979,-2.346,8.938,2.795,-2.323,8.815,-0.127,0.663,-0.603,47.644
'0:00.648',68.333,1226.888,-19.74,14.262,5.261,2.978,-2.405,8.997,2.852,-2.431,8.825,-0.113,0.659,-0.588,47.648
'0:00.652',86.934,1227.172,-20.29,14.742,5.582,2.965,-2.524,9.019,2.842,-2.487,8.902,-0.118,0.654,-0.618,47.652
'0:00.656',91.515,1227.513,-20.37,15.025,5.923,2.939,-2.609,8.981,2.784,-2.603,8.901,-0.12,0.651,-0.593,47.656
'0:00.660',77.222,1228.114,-20.681,14.714,6.33,2.889,-2.715,9.015,2.764,-2.707,9.007,-0.106,0.661,-0.657,47.659
'0:00.664',94.491,1229.051,-20.433,14.516,6.544,2.888,-2.81,9.086,2.696,-2.775,8.995,-0.12,0.642,-0.622,47.663
'0:00.668',98.016,1230.268,-20.621,14.394,6.304,2.825,-2.917,9.071,2.629,-2.909,9.032,-0.11,0.658,-0.597,47.667
'0:00.672',114.972,1231.61,-20.837,13.895,6.665,2.837,-2.978,9.046,2.629,-2.967,9.002,-0.11,0.658,-0.597,47.671
'0:00.676',107.179,1232.969,-20.717,12.943,7.012,2.8,-3.038,9.008,2.687,-3.027,8.974,-0.103,0.651,-0.595,47.675
'0:00.680',96.645,1234.34,-20.9,11.803,7.246,2.812,-3.074,9.019,2.658,-3.018,8.944,-0.101,0.656,-0.639,47.679
'0:00.684',97.193,1235.728,-20.688,11.163,7.3,2.799,-3.098,9.007,2.639,-3.153,8.933,-0.115,0.652,-0.62,47.683
'0:00.688',111.761,1237.074,-21.032,10.24,7.734,2.799,-3.061,9.019,2.619,-3.133,8.982,-0.087,0.656,-0.624,47.687
'0:00.691',126.054,1238.241,-21.122,9.966,7.955,2.812,-3.05,9.02,2.59,-3.122,8.991,-0.106,0.643,-0.637,47.691
'0:00.695',136.823,1239.132,-20.916,9.42,8.175,2.824,-3.014,8.996,2.629,-3.075,8.963,-0.106,0.643,-0.607,47.695
'0:00.699',130.636,1239.757,-21.224,8.619,8.47,2.837,-3.003,8.96,2.61,-3.056,8.904,-0.11,0.647,-0.607,47.699
'0:00.703',131.967,1240.162,-21.463,8.016,9.252,2.813,-2.98,8.912,2.659,-3.039,8.827,-0.106,0.658,-0.626,47.702
'0:00.707',143.284,1240.345,-21.853,6.971,9.7,2.801,-2.92,8.877,2.631,-2.962,8.759,-0.101,0.645,-0.653,47.706
'0:00.711',154.327,1240.303,-22.039,6.264,10.281,2.777,-2.847,8.866,2.621,-2.933,8.788,-0.101,0.645,-0.649,47.71
'0:00.715',166.192,1240.053,-22.324,5.991,10.796,2.754,-2.739,8.879,2.602,-2.806,8.789,-0.106,0.654,-0.63,47.714
'0:00.719',163.49,1239.641,-22.735,5.84,11.618,2.755,-2.666,8.905,2.592,-2.767,8.808,-0.094,0.645,-0.62,47.718
'0:00.723',166.192,1239.078,-22.711,6.001,12.34,2.78,-2.631,8.894,2.592,-2.718,8.818,-0.094,0.645,-0.62,47.722
'0:00.727',190.471,1238.27,-22.854,6.01,12.694,2.817,-2.607,8.895,2.621,-2.651,8.79,-0.097,0.645,-0.653,47.726
'0:00.730',198.303,1237.107,-23.235,5.68,12.955,2.89,-2.633,8.895,2.718,-2.653,8.772,-0.099,0.64,-0.628,47.73
'0:00.734',211.5,1235.578,-23.46,5.426,13.189,2.926,-2.694,8.895,2.736,-2.74,8.821,-0.085,0.647,-0.689,47.734
'0:00.738',212.557,1233.769,-23.298,5.737,13.864,2.95,-2.742,8.918,2.784,-2.76,8.831,-0.097,0.635,-0.655,47.738
'0:00.742',216.355,1231.727,-23.609,6.603,14.579,2.961,-2.815,8.905,2.794,-2.818,8.86,-0.096,0.64,-0.628,47.742
'0:00.746',237.932,1229.46,-23.301,7.272,15.99,2.936,-2.874,8.916,2.765,-2.857,8.83,-0.096,0.64,-0.634,47.745
'0:00.750',242.788,1227.038,-23.069,7.489,15.89,2.874,-2.993,8.888,2.746,-3.002,8.809,-0.099,0.64,-0.634,47.749
'0:00.754',256.533,1224.588,-23.165,7.037,16.284,2.824,-3.053,8.85,2.726,-3.069,8.867,-0.087,0.64,-0.662,47.753
'0:00.758',276.191,1222.288,-23.225,6.245,16.525,2.762,-3.113,8.788,2.659,-3.108,8.797,-0.097,0.64,-0.666,47.757
'0:00.762',280.772,1220.312,-23.072,6.038,17.14,2.664,-3.147,8.75,2.544,-3.175,8.726,-0.075,0.642,-0.637,47.761
'0:00.766',301.253,1218.787,-22.738,5.643,17.173,2.603,-3.158,8.737,2.526,-3.176,8.667,-0.083,0.629,-0.687,47.765
'0:00.770',304.503,1217.766,-22.271,5.379,16.966,2.541,-3.182,8.687,2.439,-3.214,8.607,-0.09,0.631,-0.643,47.769
'0:00.773',318.248,1217.27,-22.012,4.88,16.759,2.541,-3.182,8.663,2.42,-3.242,8.655,-0.09,0.631,-0.643,47.773
'0:00.777',339.002,1217.274,-21.87,4.597,16.358,2.541,-3.219,8.65,2.411,-3.292,8.586,-0.094,0.638,-0.657,47.777
'0:00.781',344.68,1217.737,-21.545,4.324,16.538,2.541,-3.244,8.601,2.363,-3.282,8.537,-0.076,0.636,-0.647,47.781
'0:00.785',348.988,1218.57,-21.184,4.107,16.966,2.492,-3.22,8.516,2.363,-3.282,8.527,-0.08,0.626,-0.678,47.784
'0:00.789',366.766,1219.675,-21.545,4.107,17.434,2.444,-3.16,8.432,2.287,-3.236,8.38,-0.087,0.631,-0.645,47.788
'0:00.793',378.906,1220.9,-21.267,3.702,17.681,2.371,-3.099,8.408,2.278,-3.216,8.38,-0.071,0.636,-0.701,47.792
'0:00.797',369.742,1222.075,-20.853,4.201,17.654,2.359,-3.063,8.42,2.229,-3.175,8.428,-0.071,0.624,-0.682,47.796
'0:00.801',378.122,1223.079,-20.31,4.795,17.467,2.372,-3.039,8.433,2.249,-3.109,8.38,-0.087,0.624,-0.682,47.8
'0:00.805',396.449,1223.854,-20.214,5.087,16.799,2.396,-3.052,8.421,2.278,-3.08,8.371,-0.082,0.638,-0.655,47.804
'0:00.809',410.194,1224.388,-20.005,5.388,16.886,2.408,-3.051,8.457,2.278,-3.089,8.41,-0.083,0.629,-0.662,47.808
'0:00.813',406.67,1224.7,-19.793,5.878,17.193,2.433,-3.063,8.47,2.306,-3.08,8.43,-0.08,0.617,-0.691,47.812
'0:00.816',401.579,1224.8,-19.422,6.481,17.461,2.396,-3.063,8.469,2.258,-3.069,8.458,-0.076,0.627,-0.666,47.816
'0:00.820',396.175,1224.684,-19.151,6.999,18.042,2.372,-3.038,8.481,2.267,-3.078,8.468,-0.087,0.631,-0.672,47.82
'0:00.824',381.059,1224.371,-18.661,7.301,17.728,2.359,-3.073,8.517,2.277,-3.156,8.448,-0.087,0.631,-0.672,47.824
'0:00.828',360.579,1223.913,-18.048,7.687,17.434,2.383,-3.133,8.54,2.287,-3.166,8.468,-0.054,0.617,-0.712,47.827
'0:00.832',324.709,1223.342,-17.611,8.167,16.986,2.419,-3.194,8.527,2.286,-3.194,8.507,-0.064,0.612,-0.743,47.831
'0:00.836',289.662,1222.671,-16.968,8.638,16.665,2.442,-3.291,8.502,2.296,-3.322,8.447,-0.047,0.61,-0.743,47.835
'0:00.840',253.283,1221.971,-16.127,8.356,16.364,2.454,-3.363,8.525,2.297,-3.332,8.418,-0.064,0.613,-0.701,47.839
'0:00.844',221.211,1221.283,-15.617,8.101,15.97,2.441,-3.436,8.487,2.306,-3.391,8.388,-0.062,0.619,-0.685,47.843
'0:00.848',197.48,1220.612,-15.332,7.837,15.769,2.392,-3.411,8.451,2.316,-3.46,8.359,-0.071,0.624,-0.687,47.847
'0:00.852',160.279,1219.912,-14.885,7.498,15.689,2.306,-3.423,8.377,2.23,-3.439,8.328,-0.071,0.624,-0.687,47.851
'0:00.855',127.111,1219.224,-14.573,6.933,15.308,2.233,-3.362,8.34,2.173,-3.411,8.23,-0.062,0.626,-0.676,47.855
'0:00.859',93.943,1218.699,-14.11,6.302,15.174,2.161,-3.3,8.34,2.106,-3.371,8.229,-0.05,0.62,-0.693,47.859
'0:00.863',61.872,1218.491,-13.818,6.067,14.312,2.099,-3.298,8.352,2.047,-3.311,8.287,-0.052,0.604,-0.724,47.863
'0:00.867',51.103,1218.599,-13.444,6.038,13.583,2.087,-3.285,8.4,1.999,-3.291,8.286,-0.052,0.622,-0.718,47.867
'0:00.871',27.372,1218.87,-13.066,6.434,13.109,2.112,-3.261,8.449,2.008,-3.318,8.394,-0.052,0.622,-0.71,47.87
'0:00.875',27.372,1219.112,-12.437,6.424,12.146,2.124,-3.296,8.485,2.008,-3.337,8.433,-0.052,0.622,-0.71,47.874
'0:00.879',13.079,1219.224,-11.93,6.622,11.812,2.136,-3.272,8.534,1.969,-3.297,8.452,-0.062,0.613,-0.693,47.878
'0:00.883',14.411,1219.195,-11.559,7.112,12.026,2.1,-3.271,8.534,1.95,-3.345,8.441,-0.045,0.624,-0.678,47.882
'0:00.887',-12.805,1219.054,-10.933,7.263,11.725,2.088,-3.235,8.51,1.95,-3.316,8.461,-0.062,0.608,-0.718,47.886
'0:00.891',-6.07,1218.866,-10.456,7.225,11.411,2.088,-3.223,8.51,1.959,-3.277,8.461,-0.064,0.619,-0.687,47.89
'0:00.895',-7.127,1218.745,-9.983,7.235,10.829,2.063,-3.235,8.473,1.969,-3.278,8.442,-0.062,0.624,-0.699,47.894
'0:00.898',-19.266,1218.804,-9.615,7.216,10.502,2.088,-3.236,8.437,1.923,-3.251,8.256,-0.048,0.62,-0.691,47.898
'0:00.902',-31.132,1219.083,-9.307,7.583,9.88,2.088,-3.261,8.413,1.97,-3.28,8.325,-0.048,0.62,-0.691,47.902
'0:00.906',-27.372,1219.554,-8.578,7.366,9.405,2.111,-3.333,8.448,1.97,-3.328,8.354,-0.052,0.617,-0.714,47.906
'0:00.910',-24.67,1220.108,-8.078,7.828,8.897,2.111,-3.368,8.472,2.027,-3.338,8.394,-0.05,0.62,-0.693,47.909
'0:00.914',-26.002,1220.591,-7.558,8.195,8.289,2.11,-3.441,8.458,1.999,-3.386,8.393,-0.043,0.627,-0.745,47.913
'0:00.918',-19.266,1220.875,-6.744,8.516,7.607,2.11,-3.465,8.434,1.989,-3.425,8.353,-0.054,0.613,-0.705,47.917
'0:00.922',-28.704,1220.95,-6.171,8.563,7.474,2.072,-3.525,8.396,1.893,-3.55,8.312,-0.047,0.62,-0.678,47.921
'0:00.926',-10.377,1220.825,-5.677,7.979,7.413,2.023,-3.549,8.37,1.903,-3.542,8.283,-0.047,0.62,-0.678,47.925
'0:00.930',-10.651,1220.512,-5.21,7.988,7.206,1.962,-3.56,8.321,1.826,-3.561,8.223,-0.041,0.619,-0.672,47.929
'0:00.934',-11.983,1220.079,-4.435,7.442,6.705,1.986,-3.561,8.321,1.845,-3.57,8.272,-0.041,0.627,-0.722,47.933
'0:00.938',-17.935,1219.65,-3.706,6.98,5.963,1.986,-3.62,8.332,1.846,-3.668,8.232,-0.048,0.613,-0.705,47.937
'0:00.941',-10.103,1219.362,-3.266,6.632,5.408,2.034,-3.644,8.393,1.846,-3.687,8.232,-0.033,0.619,-0.71,47.941
'0:00.945',-25.219,1219.283,-2.706,6.227,5.234,2.034,-3.669,8.392,1.903,-3.696,8.311,-0.043,0.604,-0.722,47.945
'0:00.949',-26.824,1219.379,-2.176,5.539,5.054,2.071,-3.657,8.393,1.98,-3.737,8.273,-0.041,0.615,-0.695,47.949
'0:00.953',-14.137,1219.575,-1.557,4.512,4.592,2.083,-3.645,8.43,1.979,-3.697,8.351,-0.041,0.615,-0.695,47.952
'0:00.957',-19.541,1219.825,-1.014,3.89,4.686,2.12,-3.609,8.455,1.998,-3.697,8.371,-0.045,0.624,-0.708,47.956
'0:00.961',-9.046,1220.137,-0.513,2.967,4.472,2.146,-3.538,8.457,2.008,-3.648,8.371,-0.038,0.624,-0.722,47.96
'0:00.965',-23.065,1220.521,-0.073,2.082,4.539,2.121,-3.514,8.433,1.989,-3.58,8.372,-0.048,0.608,-0.718,47.964
'0:00.969',-10.925,1220.908,0.182,1.064,4.659,2.123,-3.382,8.411,2.018,-3.523,8.324,-0.033,0.612,-0.691,47.968
'0:00.973',-15.781,1221.191,0.484,0.593,4.719,2.123,-3.334,8.424,1.98,-3.445,8.334,-0.036,0.617,-0.751,47.972
'0:00.977',-19.815,1221.321,1.129,0.631,4.372,2.172,-3.334,8.473,2.056,-3.395,8.443,-0.036,0.617,-0.751,47.976
'0:00.980',-23.065,1221.35,1.732,1.159,4.231,2.282,-3.372,8.474,2.094,-3.387,8.414,-0.048,0.612,-0.701,47.98
'0:00.984',-21.146,1221.433,2.378,1.234,3.837,2.379,-3.447,8.474,2.229,-3.457,8.416,-0.047,0.626,-0.697,47.984
'0:00.988',-27.646,1221.742,2.696,0.82,3.864,2.464,-3.556,8.509,2.296,-3.525,8.485,-0.038,0.613,-0.68,47.988
'0:00.992',-33.285,1222.346,3.359,0.678,4.378,2.463,-3.664,8.52,2.296,-3.662,8.415,-0.026,0.626,-0.701,47.992
'0:00.996',-36.262,1223.179,3.537,0.735,5.301,2.377,-3.674,8.494,2.248,-3.72,8.394,-0.047,0.613,-0.693,47.995
'0:01.000',-22.242,1224.092,4.193,0.33,5.909,2.279,-3.686,8.408,2.21,-3.77,8.306,-0.027,0.626,-0.754,47.999
'0:01.004',-20.911,1224.946,4.306,-0.707,6.35,2.193,-3.672,8.407,2.076,-3.719,8.314,-0.027,0.626,-0.754,48.003
'0:01.008',-27.921,1225.617,5.081,-1.696,6.197,2.107,-3.693,8.442,2.037,-3.727,8.332,-0.045,0.604,-0.72,48.007
'0:01.012',-48.949,1226.034,5.535,-2.251,6.23,2.046,-3.728,8.44,1.98,-3.727,8.312,-0.038,0.615,-0.691,48.011
'0:01.016',-35.439,1226.188,5.949,-2.854,6.504,1.996,-3.763,8.439,1.893,-3.929,8.328,-0.057,0.619,-0.701,48.015
'0:01.020',-53.531,1226.063,6.571,-3.89,6.605,1.971,-3.787,8.426,1.826,-3.823,8.24,-0.031,0.627,-0.685,48.019
'0:01.023',-36.262,1225.676,7.214,-5.341,6.551,2.02,-3.799,8.475,1.922,-3.822,8.339,-0.047,0.615,-0.722,48.023
'0:01.027',-44.877,1225.092,7.303,-6.377,6.023,2.021,-3.762,8.512,1.911,-3.821,8.388,-0.047,0.615,-0.722,48.027
'0:01.031',-35.165,1224.405,7.409,-7.056,6.324,2.083,-3.691,8.526,1.882,-3.791,8.397,-0.022,0.617,-0.687,48.031
'0:01.035',-20.911,1223.675,7.621,-7.866,6.671,2.12,-3.608,8.504,1.902,-3.753,8.408,-0.027,0.612,-0.739,48.034
'0:01.039',-36.262,1222.983,8.088,-8.045,6.805,2.158,-3.501,8.506,1.94,-3.645,8.487,-0.041,0.612,-0.693,48.038
'0:01.043',-33.011,1222.421,8.184,-9.081,6.711,2.196,-3.417,8.532,2.036,-3.53,8.49,-0.04,0.619,-0.703,48.042
'0:01.047',-42.997,1222.096,8.158,-9.458,6.885,2.209,-3.321,8.571,2.084,-3.443,8.511,-0.033,0.615,-0.685,48.046
'0:01.051',-52.16,1222.1,7.952,-9.185,7.607,2.223,-3.212,8.609,2.093,-3.297,8.532,-0.04,0.613,-0.72,48.05
'0:01.055',-38.415,1222.446,8.012,-9.09,7.621,2.235,-3.14,8.647,2.113,-3.239,8.533,-0.04,0.613,-0.72,48.054
'0:01.059',-52.16,1223.013,8.184,-9.006,7.293,2.322,-3.08,8.71,2.15,-3.199,8.661,-0.045,0.613,-0.687,48.058
'0:01.063',-31.954,1223.688,8.429,-8.666,6.979,2.395,-3.105,8.759,2.208,-3.151,8.691,-0.031,0.622,-0.747,48.062
'0:01.066',-42.723,1224.375,8.413,-8.139,6.965,2.444,-3.094,8.772,2.256,-3.161,8.702,-0.048,0.61,-0.712,48.066
'0:01.070',-52.708,1224.892,8.678,-7.64,6.925,2.493,-3.096,8.736,2.314,-3.114,8.654,-0.043,0.62,-0.687,48.07
'0:01.074',-69.704,1224.963,8.512,-7.687,6.825,2.506,-3.073,8.7,2.352,-3.133,8.704,-0.045,0.619,-0.687,48.074
'0:01.078',-65.905,1224.363,8.39,-7.988,6.551,2.494,-3.048,8.701,2.381,-3.115,8.655,-0.045,0.619,-0.687,48.077
'0:01.082',-63.477,1223.054,8.396,-7.197,6.725,2.395,-3.083,8.674,2.314,-3.124,8.674,-0.041,0.629,-0.716,48.081
'0:01.086',-59.992,1221.216,8.128,-6.538,6.905,2.297,-3.13,8.612,2.209,-3.152,8.603,-0.047,0.619,-0.712,48.085
'0:01.090',-70.487,1219.133,8.323,-6.594,6.932,2.137,-3.223,8.547,2.046,-3.258,8.531,-0.026,0.626,-0.682,48.089
'0:01.094',-54.314,1217.049,8.426,-6.415,7.039,2.026,-3.281,8.521,1.96,-3.307,8.412,-0.045,0.61,-0.731,48.093
'0:01.098',-49.732,1215.099,8.27,-6.34,6.825,1.939,-3.353,8.457,1.845,-3.344,8.4,-0.054,0.62,-0.676,48.097
'0:01.102',-61.598,1213.386,8.145,-6.5,5.983,1.915,-3.34,8.445,1.835,-3.384,8.361,-0.048,0.627,-0.699,48.101
'0:01.105',-57.838,1212.098,7.711,-6.538,5.836,1.915,-3.34,8.482,1.787,-3.382,8.399,-0.048,0.627,-0.699,48.105
'0:01.109',-70.487,1211.419,7.479,-6.151,6.143,1.891,-3.327,8.506,1.777,-3.411,8.408,-0.033,0.62,-0.68,48.109
'0:01.113',-71.583,1211.46,7.628,-5.68,6.551,1.879,-3.29,8.543,1.738,-3.36,8.467,-0.038,0.622,-0.716,48.113
'0:01.117',-65.396,1212.277,7.399,-5.087,6.25,1.94,-3.278,8.592,1.767,-3.322,8.458,-0.043,0.62,-0.678,48.117
'0:01.121',-75.891,1213.844,7.234,-5.011,5.642,2.002,-3.254,8.678,1.846,-3.299,8.235,-0.034,0.629,-0.741,48.12
'0:01.125',-57.29,1216.045,7.26,-3.956,5.669,2.1,-3.255,8.716,1.902,-3.256,8.5,-0.047,0.626,-0.657,48.124
'0:01.129',-56.194,1218.683,7.439,-3.109,5.796,2.149,-3.256,8.728,1.939,-3.294,8.578,-0.047,0.626,-0.664,48.128
'0:01.133',-41.94,1221.558,7.575,-2.506,6.123,2.185,-3.27,8.692,2.026,-3.314,8.609,-0.041,0.629,-0.664,48.132
'0:01.137',-48.949,1224.521,7.505,-2.496,5.936,2.185,-3.294,8.704,2.035,-3.344,8.599,-0.02,0.629,-0.697,48.136
'0:01.141',-56.194,1227.409,7.578,-2.214,5.749,2.197,-3.306,8.704,2.035,-3.362,8.648,-0.052,0.627,-0.659,48.14
'0:01.145',-69.978,1230.022,7.436,-2.082,6.103,2.148,-3.282,8.631,2.007,-3.334,8.55,-0.034,0.633,-0.685,48.144
'0:01.148',-56.468,1232.169,7.548,-2.091,5.715,2.112,-3.258,8.607,1.987,-3.294,8.618,-0.036,0.633,-0.697,48.148
'0:01.152',-61.049,1233.769,7.532,-2.346,5.441,2.075,-3.257,8.618,1.998,-3.276,8.53,-0.04,0.617,-0.705,48.152
'0:01.156',-65.631,1234.861,7.734,-2.468,4.793,2.075,-3.28,8.654,1.969,-3.286,8.53,-0.04,0.617,-0.705,48.156
'0:01.160',-69.704,1235.527,7.943,-2.534,4.024,2.05,-3.304,8.617,1.93,-3.332,8.587,-0.047,0.622,-0.68,48.159
'0:01.164',-52.16,1235.786,7.846,-2.732,3.536,2.074,-3.317,8.605,1.949,-3.343,8.549,-0.054,0.631,-0.691,48.163
'0:01.168',-58.112,1235.557,7.644,-3.457,2.754,2.111,-3.305,8.63,1.948,-3.361,8.617,-0.033,0.627,-0.678,48.167
'0:01.172',-62.42,1234.748,8.085,-3.9,2.487,2.087,-3.317,8.605,1.939,-3.332,8.588,-0.04,0.624,-0.71,48.171
'0:01.176',-64.848,1233.344,7.668,-4.069,2.594,2.05,-3.268,8.618,1.93,-3.343,8.548,-0.031,0.629,-0.676,48.175
'0:01.180',-51.886,1231.402,7.601,-4.041,2.714,2.027,-3.22,8.606,1.911,-3.285,8.519,-0.031,0.629,-0.726,48.179
'0:01.184',-36.262,1229.055,7.621,-4.173,2.039,2.063,-3.196,8.631,1.93,-3.236,8.559,-0.031,0.635,-0.726,48.183
'0:01.188',-43.271,1226.522,7.943,-3.73,1.477,2.149,-3.209,8.693,2.007,-3.236,8.599,-0.045,0.626,-0.691,48.187
'0:01.191',-46.756,1224.13,8.072,-3.297,0.435,2.283,-3.259,8.73,2.054,-3.293,8.697,-0.034,0.629,-0.653,48.191
'0:01.195',-32.228,1222.196,8.29,-2.741,-0.187,2.356,-3.333,8.742,2.141,-3.315,8.679,-0.047,0.627,-0.662,48.195
'0:01.199',-34.656,1220.9,7.797,-2.374,0.201,2.368,-3.37,8.717,2.16,-3.402,8.708,-0.034,0.638,-0.708,48.199
'0:01.203',-34.656,1220.187,8.005,-2.412,0.582,2.306,-3.368,8.716,2.198,-3.413,8.66,-0.04,0.624,-0.689,48.202
'0:01.207',-11.474,1219.833,7.813,-2.421,0.735,2.258,-3.307,8.705,2.15,-3.374,8.64,-0.04,0.624,-0.689,48.206
'0:01.211',-2.036,1219.633,7.572,-2.619,0.956,2.124,-3.244,8.704,2.006,-3.274,8.638,-0.026,0.631,-0.678,48.21
'0:01.215',-17.113,1219.558,7.469,-2.751,0.622,2.039,-3.17,8.716,1.92,-3.254,8.627,-0.043,0.624,-0.705,48.214
'0:01.219',-14.959,1219.77,7.128,-3.09,0.374,1.954,-3.107,8.765,1.842,-3.115,8.695,-0.043,0.633,-0.662,48.218
'0:01.223',-14.685,1220.471,7.088,-3.043,-0.013,1.893,-3.093,8.776,1.803,-3.113,8.782,-0.052,0.638,-0.685,48.222
'0:01.227',-11.983,1221.746,7.181,-2.722,-0.602,1.881,-3.081,8.8,1.785,-3.143,8.713,-0.031,0.64,-0.666,48.226
'0:01.230',10.377,1223.534,7.432,-2.996,-1.324,1.941,-3.142,8.8,1.804,-3.125,8.685,-0.031,0.627,-0.701,48.23
'0:01.234',27.098,1225.651,7.184,-3.259,-2.36,2.051,-3.192,8.813,1.871,-3.193,8.705,-0.047,0.627,-0.701,48.234
'0:01.238',48.401,1227.859,6.912,-3.41,-3.015,2.1,-3.229,8.825,1.929,-3.232,8.735,-0.026,0.631,-0.664,48.238
'0:01.242',51.612,1229.943,6.585,-2.948,-2.861,2.063,-3.217,8.764,1.948,-3.253,8.696,-0.034,0.64,-0.731,48.242
'0:01.246',54.588,1231.718,6.233,-2.911,-2.627,2.039,-3.217,8.764,1.91,-3.291,8.685,-0.048,0.627,-0.682,48.245
'0:01.250',58.622,1233.035,6.084,-2.817,-2.995,2.014,-3.204,8.8,1.91,-3.292,8.656,-0.041,0.638,-0.678,48.249
'0:01.254',58.112,1233.798,5.713,-2.713,-4.325,2.051,-3.204,8.825,1.958,-3.272,8.706,-0.036,0.631,-0.649,48.253
'0:01.258',64.574,1233.998,5.554,-2.176,-4.76,2.063,-3.228,8.849,1.928,-3.319,8.763,-0.036,0.631,-0.649,48.257
'0:01.262',53.766,1233.731,5.306,-2.449,-5.274,2.051,-3.228,8.836,1.928,-3.27,8.803,-0.038,0.643,-0.699,48.261
'0:01.266',24.944,1233.169,5.362,-2.873,-6.07,2.088,-3.217,8.837,1.918,-3.241,8.793,-0.05,0.629,-0.682,48.265
'0:01.270',11.709,1232.523,4.832,-2.892,-6.417,2.088,-3.204,8.862,1.967,-3.252,8.784,-0.034,0.636,-0.689,48.269
'0:01.273',-6.618,1231.964,4.471,-2.44,-6.859,2.088,-3.192,8.862,1.966,-3.232,8.794,-0.052,0.624,-0.693,48.273
'0:01.277',-16.055,1231.539,4.677,-2.223,-7.527,2.1,-3.193,8.838,1.986,-3.183,8.814,-0.045,0.638,-0.664,48.277
'0:01.281',-10.377,1231.235,4.392,-2.656,-8.195,2.149,-3.194,8.838,1.977,-3.204,8.746,-0.057,0.642,-0.676,48.281
'0:01.285',-23.848,1231.106,4.279,-2.864,-9.252,2.185,-3.219,8.85,2.063,-3.205,8.786,-0.057,0.642,-0.676,48.284
'0:01.289',-37.593,1231.227,4.206,-2.807,-9.927,2.222,-3.231,8.887,2.092,-3.254,8.776,-0.04,0.642,-0.695,48.288
'0:01.293',-54.862,1231.568,4.137,-2.28,-10.02,2.222,-3.195,8.888,2.082,-3.243,8.806,-0.052,0.629,-0.695,48.292
'0:01.297',-62.968,1231.873,4.104,-2.28,-10.301,2.149,-3.206,8.85,2.072,-3.244,8.786,-0.027,0.635,-0.666,48.296
'0:01.301',-73.189,1231.768,4.253,-2.346,-11.057,2.076,-3.181,8.825,1.976,-3.251,8.804,-0.041,0.627,-0.716,48.3
'0:01.305',-71.857,1230.989,4.193,-2.317,-11.404,2.04,-3.133,8.777,1.939,-3.224,8.676,-0.05,0.636,-0.693,48.304
'0:01.309',-72.131,1229.518,4.276,-2.741,-12.373,1.979,-3.096,8.705,1.9,-3.214,8.676,-0.05,0.636,-0.693,48.308
'0:01.313',-57.838,1227.605,4.481,-2.958,-13.062,1.967,-3.074,8.632,1.853,-3.138,8.529,-0.036,0.636,-0.672,48.312
'0:01.316',-48.401,1225.626,4.438,-3.542,-14.005,1.979,-3.111,8.595,1.863,-3.1,8.5,-0.041,0.633,-0.718,48.316
'0:01.320',-39.747,1223.917,4.852,-2.911,-14.867,1.991,-3.087,8.572,1.863,-3.109,8.51,-0.052,0.629,-0.682,48.32
'0:01.324',-53.531,1222.704,4.783,-2.298,-15.308,2.04,-3.136,8.572,1.883,-3.169,8.471,-0.043,0.643,-0.637,48.324
'0:01.328',-54.588,1222.096,5.402,-1.733,-16.03,2.076,-3.21,8.547,1.94,-3.198,8.51,-0.061,0.64,-0.653,48.327
'0:01.332',-58.112,1222.125,5.326,-1.253,-16.912,2.1,-3.247,8.546,1.969,-3.247,8.52,-0.048,0.638,-0.687,48.331
'0:01.336',-64.3,1222.746,5.756,-0.97,-17.247,2.075,-3.27,8.533,1.979,-3.297,8.462,-0.048,0.638,-0.687,48.335
'0:01.340',-54.588,1223.825,5.72,-0.292,-16.531,2.014,-3.258,8.484,1.902,-3.297,8.382,-0.057,0.631,-0.672,48.339
'0:01.344',-37.593,1225.155,5.766,-0.038,-16.277,1.916,-3.232,8.447,1.864,-3.296,8.382,-0.038,0.642,-0.685,48.343
'0:01.348',-25.219,1226.551,6.634,0.085,-16.812,1.928,-3.244,8.459,1.816,-3.285,8.42,-0.055,0.622,-0.689,48.347
'0:01.352',-28.156,1227.993,6.995,0.254,-17.855,1.965,-3.292,8.495,1.844,-3.334,8.42,-0.068,0.638,-0.655,48.351
'0:01.355',-30.583,1229.526,7.634,0.65,-18.65,2.049,-3.379,8.471,1.854,-3.344,8.41,-0.069,0.645,-0.67,48.355
'0:01.359',-19.266,1231.131,8.085,1.036,-19.112,2.122,-3.441,8.446,1.95,-3.453,8.411,-0.069,0.645,-0.67,48.359
'0:01.363',-20.089,1232.689,8.519,0.904,-18.951,2.11,-3.453,8.446,1.97,-3.463,8.382,-0.055,0.647,-0.643,48.363
'0:01.367',-41.117,1234.077,9.122,0.641,-18.463,2.135,-3.417,8.447,1.932,-3.444,8.333,-0.061,0.64,-0.674,48.367
'0:01.371',-43.819,1235.111,9.526,0.301,-18.59,2.074,-3.391,8.495,1.95,-3.463,8.391,-0.062,0.645,-0.653,48.37
'0:01.375',30.583,1235.569,10.152,0.236,-18.309,2.075,-3.307,8.508,1.931,-3.403,8.47,-0.055,0.645,-0.708,48.374
'0:01.379',193.956,1235.327,10.735,-0.33,-18.37,2.051,-3.27,8.533,1.988,-3.278,8.452,-0.066,0.635,-0.664,48.378
'0:01.383',394.295,1234.461,11.278,-0.999,-18.831,2.125,-3.211,8.572,1.988,-3.256,8.54,-0.057,0.642,-0.668,48.382
'0:01.387',535.817,1233.265,12.069,-1.912,-19.339,2.211,-3.188,8.609,2.103,-3.229,8.562,-0.057,0.642,-0.668,48.386
'0:01.391',534.212,1232.127,12.444,-2.883,-19.453,2.321,-3.142,8.624,2.151,-3.22,8.582,-0.059,0.645,-0.676,48.39
'0:01.395',268.398,1231.318,12.97,-3.542,-19.593,2.407,-3.108,8.65,2.238,-3.192,8.594,-0.061,0.645,-0.676,48.394
'0:01.398',-28.704,1230.927,13.908,-3.938,-19.693,2.481,-3.085,8.676,2.257,-3.172,8.614,-0.078,0.638,-0.651,48.398
'0:01.402',-334.421,1230.927,14.292,-4.39,-19.493,2.567,-3.062,8.713,2.401,-3.107,8.617,-0.054,0.642,-0.641,48.402
'0:01.406',-698.367,1231.302,14.954,-4.559,-19.305,2.604,-3.074,8.726,2.468,-3.107,8.657,-0.075,0.635,-0.676,48.406
'0:01.410',-896.279,1231.998,15.729,-4.87,-19.205,2.653,-3.064,8.703,2.497,-3.128,8.628,-0.075,0.635,-0.676,48.409
'0:01.414',-876.856,1232.894,16.385,-5.247,-18.938,2.726,-3.114,8.678,2.554,-3.138,8.658,-0.071,0.64,-0.641,48.413
'0:01.418',-758.242,1233.894,16.902,-5.793,-18.878,2.738,-3.139,8.654,2.564,-3.149,8.61,-0.085,0.647,-0.651,48.417
'0:01.422',-580.85,1235.032,17.697,-7.093,-18.283,2.762,-3.139,8.654,2.545,-3.167,8.638,-0.068,0.651,-0.662,48.421
'0:01.426',-385.641,1236.357,18.273,-7.809,-17.641,2.725,-3.174,8.665,2.594,-3.179,8.561,-0.082,0.647,-0.659,48.425
'0:01.430',-187.221,1237.778,18.82,-8.582,-17.026,2.701,-3.174,8.677,2.584,-3.149,8.62,-0.066,0.643,-0.637,48.429
'0:01.434',-59.444,1239.132,19.611,-9.656,-16.932,2.64,-3.16,8.701,2.478,-3.225,8.617,-0.073,0.654,-0.695,48.433
'0:01.438',-5.521,1240.283,19.929,-10.447,-16.297,2.591,-3.134,8.749,2.458,-3.175,8.666,-0.073,0.654,-0.695,48.437
'0:01.441',3.642,1241.133,20.419,-11.7,-15.749,2.53,-3.096,8.761,2.391,-3.144,8.675,-0.083,0.643,-0.641,48.441
'0:01.445',31.954,1241.549,21.151,-12.849,-15.729,2.494,-3.023,8.762,2.362,-3.114,8.714,-0.073,0.643,-0.63,48.445
'0:01.449',56.742,1241.47,21.565,-14.3,-15.208,2.507,-2.975,8.787,2.381,-3.105,8.675,-0.076,0.647,-0.643,48.449
'0:01.453',82.626,1240.962,21.943,-15.59,-14.827,2.52,-2.927,8.776,2.381,-2.998,8.715,-0.076,0.643,-0.697,48.452
'0:01.457',91.789,1240.178,22.476,-16.758,-14.526,2.569,-2.881,8.729,2.373,-2.981,8.588,-0.075,0.654,-0.62,48.456
'0:01.461',89.087,1239.291,22.847,-17.7,-14.305,2.643,-2.811,8.707,2.459,-2.914,8.61,-0.075,0.654,-0.62,48.46
'0:01.465',83.997,1238.382,23.145,-18.435,-13.904,2.681,-2.777,8.684,2.478,-2.904,8.61,-0.094,0.656,-0.622,48.464
'0:01.469',88.03,1237.374,23.033,-19.132,-13.476,2.73,-2.694,8.686,2.527,-2.789,8.582,-0.085,0.663,-0.647,48.468
'0:01.473',110.664,1236.115,22.758,-19.264,-12.915,2.719,-2.645,8.675,2.536,-2.663,8.593,-0.097,0.654,-0.639,48.472
'0:01.477',136.823,1234.565,22.728,-19.179,-11.778,2.708,-2.538,8.64,2.537,-2.644,8.554,-0.082,0.659,-0.624,48.476
'0:01.480',122.53,1232.848,22.705,-18.802,-11.063,2.696,-2.513,8.665,2.517,-2.585,8.564,-0.097,0.645,-0.651,48.48
'0:01.484',135.217,1231.168,22.741,-18.397,-10.281,2.708,-2.501,8.689,2.556,-2.537,8.575,-0.099,0.654,-0.609,48.484
'0:01.488',135.452,1229.76,22.489,-17.823,-9.84,2.769,-2.49,8.715,2.613,-2.558,8.586,-0.099,0.654,-0.609,48.488
'0:01.492',139.525,1228.855,22.715,-17.465,-9.479,2.83,-2.503,8.727,2.623,-2.557,8.605,-0.108,0.661,-0.628,48.492
'0:01.496',151.899,1228.564,22.181,-16.966,-9.265,2.916,-2.516,8.789,2.68,-2.518,8.704,-0.096,0.656,-0.607,48.495
'0:01.500',140.582,1228.864,22.185,-16.881,-8.757,2.928,-2.551,8.837,2.766,-2.577,8.725,-0.099,0.663,-0.632,48.499
'0:01.504',152.721,1229.66,22.175,-16.24,-8.262,2.94,-2.551,8.861,2.766,-2.605,8.773,-0.108,0.659,-0.601,48.503
'0:01.508',165.135,1230.818,21.853,-16.071,-7.38,2.94,-2.575,8.849,2.746,-2.575,8.832,-0.101,0.661,-0.664,48.507
'0:01.512',167.015,1232.119,21.565,-16.24,-6.818,2.903,-2.563,8.836,2.756,-2.625,8.763,-0.101,0.661,-0.664,48.511
'0:01.516',182.365,1233.248,21.168,-16.852,-6.531,2.891,-2.538,8.873,2.756,-2.585,8.832,-0.111,0.658,-0.632,48.515
'0:01.520',174.846,1233.89,20.774,-17.154,-6.578,2.867,-2.5,8.921,2.726,-2.544,8.89,-0.104,0.663,-0.597,48.519
'0:01.523',171.048,1233.869,20.625,-17.107,-6.377,2.843,-2.462,8.97,2.688,-2.515,8.87,-0.111,0.665,-0.584,48.523
'0:01.527',180.485,1233.252,20.257,-17.144,-6.063,2.855,-2.462,8.995,2.678,-2.494,8.9,-0.108,0.665,-0.624,48.527
'0:01.531',194.778,1232.302,20.141,-17.437,-6.21,2.856,-2.414,8.996,2.698,-2.505,8.88,-0.113,0.661,-0.603,48.531
'0:01.535',195.053,1231.431,19.724,-17.757,-6.103,2.905,-2.404,8.96,2.813,-2.449,8.883,-0.099,0.666,-0.588,48.534
'0:01.539',192.351,1231.022,19.098,-18.021,-6.09,2.905,-2.344,8.937,2.756,-2.439,8.833,-0.099,0.666,-0.588,48.538
'0:01.543',189.923,1231.331,17.965,-18.473,-5.789,2.882,-2.261,8.89,2.698,-2.361,8.784,-0.113,0.654,-0.618,48.542
'0:01.547',195.875,1232.389,17.157,-18.501,-5.254,2.822,-2.103,8.879,2.612,-2.186,8.755,-0.131,0.661,-0.591,48.546
'0:01.551',206.37,1234.015,15.978,-17.926,-4.285,2.8,-1.922,8.907,2.622,-2.069,8.756,-0.129,0.666,-0.603,48.55
'0:01.555',223.365,1235.882,15.312,-16.9,-4.138,2.838,-1.789,8.97,2.709,-1.896,8.749,-0.113,0.666,-0.582,48.554
'0:01.559',223.913,1237.611,14.169,-15.882,-4.78,2.998,-1.744,9.022,2.747,-1.827,8.818,-0.12,0.665,-0.611,48.558
'0:01.563',239.538,1238.87,13.179,-14.695,-5.087,3.12,-1.746,9.084,2.891,-1.809,8.889,-0.12,0.665,-0.611,48.562
'0:01.566',243.297,1239.424,11.791,-12.821,-5.167,3.217,-1.807,9.145,3.015,-1.897,8.949,-0.12,0.665,-0.582,48.566
'0:01.570',251.677,1239.22,11.003,-10.814,-4.425,3.29,-1.88,9.193,3.063,-1.946,9.008,-0.117,0.674,-0.639,48.57
'0:01.574',268.398,1238.391,10.182,-8.591,-4.198,3.313,-1.976,9.228,3.139,-2.004,9.087,-0.127,0.665,-0.595,48.574
'0:01.578',286.999,1237.253,9.244,-6.867,-3.53,3.276,-2.034,9.274,3.129,-2.052,9.106,-0.124,0.672,-0.57,48.577
'0:01.582',303.446,1236.161,8.168,-5.341,-3.088,3.177,-2.093,9.236,3.014,-2.089,9.065,-0.12,0.665,-0.568,48.581
'0:01.586',306.657,1235.344,6.929,-3.956,-2.179,3.006,-2.102,9.185,2.946,-2.117,9.083,-0.118,0.67,-0.607,48.585
'0:01.590',313.666,1234.902,6.084,-2.741,-1.257,2.81,-2.122,9.133,2.764,-2.164,8.982,-0.118,0.67,-0.607,48.589
'0:01.594',330.387,1234.894,4.461,-1.95,-0.876,2.687,-2.144,9.107,2.572,-2.199,9.008,-0.127,0.663,-0.597,48.593
'0:01.598',334.147,1235.311,3.918,-1.601,-1.558,2.625,-2.226,9.129,2.524,-2.247,8.997,-0.11,0.668,-0.574,48.597
'0:01.602',351.69,1236.007,2.918,-1.554,-2.052,2.6,-2.285,9.164,2.466,-2.324,9.015,-0.127,0.661,-0.607,48.601
'0:01.605',353.844,1236.765,2.226,-1.338,-2.213,2.635,-2.37,9.163,2.476,-2.373,8.985,-0.125,0.665,-0.57,48.605
'0:01.609',374.324,1237.382,1.63,-0.895,-2.226,2.61,-2.43,9.137,2.456,-2.44,9.023,-0.131,0.674,-0.591,48.609
'0:01.613',390.497,1237.799,0.937,-1.149,-2.146,2.66,-2.419,9.126,2.485,-2.46,9.033,-0.131,0.674,-0.591,48.613
'0:01.617',396.723,1238.111,0.063,-1.046,-2.059,2.672,-2.432,9.114,2.466,-2.489,9.013,-0.12,0.674,-0.568,48.617
'0:01.621',401.031,1238.499,-0.709,-1.14,-2.179,2.684,-2.407,9.138,2.542,-2.47,9.044,-0.131,0.666,-0.605,48.62
'0:01.625',417.987,1239.099,-1.315,-0.989,-2.266,2.696,-2.396,9.115,2.552,-2.461,9.015,-0.115,0.666,-0.576,48.624
'0:01.629',419.083,1239.903,-1.948,-0.961,-2.146,2.759,-2.314,9.069,2.611,-2.386,8.939,-0.117,0.672,-0.634,48.628
'0:01.633',419.083,1240.737,-2.527,-1.319,-2.467,2.82,-2.256,9.034,2.649,-2.395,8.988,-0.134,0.663,-0.588,48.632
'0:01.637',427.972,1241.354,-3.176,-1.196,-2.888,2.919,-2.21,9.061,2.745,-2.368,8.951,-0.124,0.675,-0.582,48.636
'0:01.641',433.102,1241.633,-3.826,-0.414,-2.767,2.98,-2.187,9.074,2.784,-2.253,8.913,-0.124,0.675,-0.582,48.64
'0:01.645',432.828,1241.591,-4.293,0.283,-1.999,2.981,-2.164,9.038,2.813,-2.205,8.914,-0.122,0.67,-0.563,48.644
'0:01.648',432.28,1241.279,-4.928,0.829,-2.139,2.981,-2.176,9.038,2.842,-2.225,8.914,-0.122,0.674,-0.609,48.648
'0:01.652',431.771,1240.728,-5.147,0.933,-2.039,2.943,-2.235,9.036,2.794,-2.244,8.904,-0.129,0.661,-0.584,48.652
'0:01.656',426.093,1239.987,-5.611,1.328,-2.206,2.955,-2.26,9.036,2.765,-2.302,8.912,-0.103,0.674,-0.603,48.656
'0:01.660',417.478,1239.066,-6.137,1.837,-2.066,2.918,-2.272,8.938,2.736,-2.311,8.902,-0.132,0.659,-0.609,48.659
'0:01.664',416.655,1237.974,-6.674,1.234,-1.464,2.869,-2.296,8.925,2.708,-2.331,8.843,-0.132,0.659,-0.58,48.663
'0:01.668',412.896,1236.807,-6.982,0.97,-1.136,2.758,-2.34,8.996,2.602,-2.349,8.831,-0.124,0.672,-0.58,48.667
'0:01.672',395.627,1235.778,-7.297,1.545,-0.06,2.586,-2.396,9.004,2.496,-2.385,8.898,-0.129,0.668,-0.591,48.671
'0:01.676',361.676,1235.065,-7.439,2.204,1.437,2.451,-2.431,8.88,2.381,-2.453,8.778,-0.122,0.674,-0.607,48.675
'0:01.680',309.359,1234.765,-6.962,1.3,0.829,2.5,-2.46,8.711,2.343,-2.435,8.68,-0.131,0.658,-0.611,48.679
'0:01.684',291.032,1234.848,-7.396,-0.377,-1.678,2.831,-2.468,8.68,2.584,-2.498,8.615,-0.11,0.668,-0.582,48.683
'0:01.688',250.032,1235.219,-8.078,-2.006,-4.653,3.259,-2.488,8.733,2.997,-2.503,8.729,-0.118,0.652,-0.63,48.687
'0:01.691',229.826,1235.844,-9.31,-1.112,-5.034,3.504,-2.493,8.81,3.17,-2.545,8.713,-0.118,0.652,-0.63,48.691
'0:01.695',198.029,1236.732,-10.135,1.074,-2.741,3.407,-2.43,8.833,3.218,-2.487,8.772,-0.134,0.658,-0.582,48.695
'0:01.699',165.135,1237.865,-10.546,2.741,0.087,3.224,-2.341,8.881,3.18,-2.438,8.743,-0.129,0.665,-0.595,48.699
'0:01.703',132.241,1239.216,-10.288,3.184,0.722,3.09,-2.24,8.978,3.054,-2.337,8.839,-0.12,0.659,-0.574,48.702
'0:01.707',120.376,1240.745,-10.562,2.835,-0.455,3.079,-2.141,9.076,2.996,-2.277,8.887,-0.127,0.658,-0.62,48.706
'0:01.711',112.035,1242.404,-11.225,3.212,-0.922,3.055,-2.081,9.065,2.909,-2.207,8.906,-0.136,0.654,-0.588,48.71
'0:01.715',96.919,1244.071,-11.748,3.533,-0.568,2.982,-2.045,8.98,2.842,-2.127,8.954,-0.117,0.661,-0.651,48.714
'0:01.719',84.506,1245.471,-11.801,3.89,0.749,2.885,-1.995,8.955,2.784,-2.088,8.915,-0.117,0.661,-0.651,48.718
'0:01.723',85.328,1246.33,-11.636,3.834,1.07,2.824,-1.994,8.954,2.747,-2.041,8.826,-0.129,0.658,-0.62,48.722
'0:01.727',71.309,1246.467,-11.573,3.862,1.009,2.848,-2.019,8.93,2.718,-2.04,8.816,-0.122,0.658,-0.584,48.726
'0:01.730',76.987,1245.842,-11.705,4.107,0.374,2.92,-2.129,8.88,2.728,-2.149,8.757,-0.12,0.659,-0.586,48.73
'0:01.734',62.42,1244.475,-12.199,4.305,-0.107,2.955,-2.288,8.781,2.795,-2.316,8.718,-0.124,0.665,-0.62,48.734
'0:01.738',68.607,1242.437,-12.381,4.701,-0.127,2.978,-2.434,8.731,2.825,-2.405,8.639,-0.127,0.656,-0.609,48.738
'0:01.742',55.136,1239.916,-12.414,5.303,0.508,2.928,-2.542,8.692,2.796,-2.55,8.618,-0.127,0.656,-0.609,48.742
'0:01.746',55.959,1237.274,-12.613,6.34,1.083,2.89,-2.65,8.653,2.796,-2.571,8.569,-0.108,0.659,-0.595,48.745
'0:01.750',58.347,1234.944,-12.888,6.575,1.083,2.84,-2.732,8.699,2.729,-2.763,8.596,-0.125,0.652,-0.632,48.749
'0:01.754',59.17,1233.265,-13.017,6.98,0.882,2.803,-2.79,8.734,2.68,-2.781,8.663,-0.132,0.654,-0.601,48.753
'0:01.758',67.785,1232.36,-12.98,7.197,1.11,2.765,-2.849,8.756,2.622,-2.808,8.701,-0.136,0.658,-0.614,48.757
'0:01.762',72.366,1232.11,-13.288,7.319,1.711,2.704,-2.86,8.755,2.612,-2.876,8.69,-0.113,0.659,-0.601,48.761
'0:01.766',57.016,1232.148,-13.08,7.244,1.524,2.691,-2.883,8.791,2.574,-2.914,8.709,-0.12,0.654,-0.62,48.765
'0:01.770',58.347,1232.002,-12.808,6.632,1.558,2.667,-2.87,8.827,2.487,-2.922,8.708,-0.12,0.654,-0.62,48.769
'0:01.773',73.189,1231.268,-12.801,6.443,2.039,2.692,-2.846,8.816,2.516,-2.932,8.737,-0.12,0.651,-0.597,48.773
'0:01.777',66.179,1229.81,-12.702,5.925,2.166,2.692,-2.799,8.768,2.525,-2.883,8.738,-0.111,0.663,-0.666,48.777
'0:01.781',73.737,1227.805,-12.656,5.803,2.473,2.73,-2.728,8.758,2.517,-2.838,8.572,-0.124,0.645,-0.614,48.781
'0:01.785',59.17,1225.646,-12.328,5.972,2.052,2.816,-2.669,8.797,2.574,-2.729,8.711,-0.117,0.652,-0.595,48.784
'0:01.789',73.463,1223.763,-12.49,6.321,1.945,2.927,-2.648,8.811,2.736,-2.681,8.821,-0.108,0.654,-0.582,48.788
'0:01.793',70.213,1222.496,-12.662,6.5,1.698,3.013,-2.638,8.812,2.785,-2.624,8.813,-0.108,0.654,-0.582,48.792
'0:01.797',80.747,1222.05,-12.642,6.792,1.925,3.074,-2.627,8.801,2.881,-2.626,8.785,-0.111,0.658,-0.637,48.796
'0:01.801',90.184,1222.525,-12.705,7.084,1.919,3.111,-2.615,8.85,2.9,-2.675,8.795,-0.118,0.647,-0.616,48.8
'0:01.805',91.789,1223.917,-12.619,7.941,2.366,3.11,-2.627,8.874,2.968,-2.686,8.796,-0.099,0.652,-0.597,48.804
'0:01.809',73.463,1226.105,-12.639,8.356,2.44,3.086,-2.638,8.91,2.9,-2.674,8.853,-0.115,0.64,-0.641,48.808
'0:01.813',85.876,1228.83,-12.53,8.591,2.667,3.037,-2.66,8.909,2.91,-2.636,8.805,-0.115,0.652,-0.611,48.812
'0:01.816',79.924,1231.698,-12.338,8.346,2.801,3.012,-2.696,8.908,2.919,-2.705,8.785,-0.122,0.654,-0.62,48.816
'0:01.820',74.794,1234.231,-12.218,7.772,2.841,2.987,-2.731,8.895,2.901,-2.715,8.755,-0.122,0.654,-0.62,48.82
'0:01.824',61.598,1236.028,-12.298,7.046,2.915,2.925,-2.754,8.905,2.823,-2.741,8.842,-0.108,0.652,-0.632,48.824
'0:01.828',57.564,1236.89,-12.149,6.811,3.249,2.925,-2.79,8.905,2.823,-2.818,8.861,-0.117,0.643,-0.647,48.827
'0:01.832',67.002,1236.815,-12.258,6.029,3.57,2.888,-2.838,8.879,2.784,-2.838,8.821,-0.097,0.647,-0.609,48.831
'0:01.836',61.324,1235.907,-12.368,5.435,3.904,2.863,-2.885,8.866,2.727,-2.876,8.79,-0.108,0.654,-0.672,48.835
'0:01.840',59.444,1234.323,-12.298,5.228,4.659,2.826,-2.909,8.829,2.727,-2.915,8.77,-0.12,0.642,-0.626,48.839
'0:01.844',78.593,1232.202,-12.57,4.691,5.181,2.801,-2.946,8.791,2.689,-2.974,8.701,-0.12,0.642,-0.626,48.843
'0:01.848',72.131,1229.731,-12.48,3.909,5.448,2.826,-2.934,8.768,2.699,-2.945,8.701,-0.111,0.647,-0.622,48.847
'0:01.852',65.357,1227.109,-12.941,3.589,5.782,2.862,-2.947,8.78,2.718,-2.965,8.711,-0.104,0.645,-0.601,48.851
'0:01.855',62.146,1224.563,-13.176,3.938,6.217,2.899,-2.96,8.805,2.727,-2.994,8.731,-0.096,0.651,-0.645,48.855
'0:01.859',60.775,1222.325,-13.454,4.164,7.139,2.923,-2.995,8.853,2.698,-3.032,8.749,-0.113,0.643,-0.626,48.859
'0:01.863',62.968,1220.587,-13.831,4.446,7.908,2.923,-3.019,8.877,2.727,-3.07,8.808,-0.097,0.649,-0.68,48.863
'0:01.867',55.136,1219.508,-13.904,4.343,8.71,2.91,-3.03,8.9,2.717,-3.021,8.808,-0.11,0.636,-0.651,48.867
'0:01.871',63.477,1219.179,-14.169,3.919,9.379,2.935,-3.005,8.986,2.697,-3.039,8.896,-0.11,0.636,-0.651,48.87
'0:01.875',60.54,1219.583,-14.428,3.985,10.261,2.898,-2.967,9.047,2.706,-3.048,8.925,-0.104,0.647,-0.622,48.874
'0:01.879',61.324,1220.566,-14.673,3.9,11.097,2.899,-2.919,9.035,2.725,-2.999,8.945,-0.11,0.645,-0.632,48.878
'0:01.883',48.949,1221.837,-14.736,3.372,11.752,2.887,-2.871,9.024,2.745,-2.942,8.917,-0.099,0.651,-0.653,48.882
'0:01.887',55.685,1223.004,-14.987,2.364,12.139,2.9,-2.835,9.025,2.755,-2.893,8.947,-0.11,0.635,-0.653,48.886
'0:01.891',60.775,1223.717,-15.054,1.893,12.561,2.913,-2.788,8.99,2.793,-2.826,8.938,-0.085,0.643,-0.626,48.89
'0:01.895',57.838,1223.842,-15.001,1.149,12.968,2.913,-2.765,8.929,2.794,-2.837,8.87,-0.085,0.643,-0.626,48.894
'0:01.898',61.598,1223.529,-15.312,0.885,13.363,2.962,-2.743,8.906,2.775,-2.828,8.782,-0.089,0.633,-0.678,48.898
'0:01.902',51.338,1223.038,-15.365,0.207,13.202,2.999,-2.757,8.858,2.842,-2.82,8.783,-0.106,0.636,-0.641,48.902
'0:01.906',56.468,1222.533,-15.59,0.188,13.149,3.048,-2.77,8.859,2.871,-2.801,8.764,-0.108,0.64,-0.643,48.906
'0:01.910',58.896,1222.058,-15.57,0.17,13.329,2.999,-2.794,8.785,2.834,-2.812,8.705,-0.09,0.645,-0.63,48.909
'0:01.914',55.685,1221.579,-16.008,0.264,14.105,2.95,-2.794,8.724,2.824,-2.821,8.714,-0.096,0.636,-0.664,48.913
'0:01.918',61.598,1221.071,-16.2,0.386,14.86,2.876,-2.782,8.65,2.766,-2.811,8.655,-0.101,0.633,-0.63,48.917
'0:01.922',68.333,1220.516,-16.054,0.236,14.954,2.864,-2.793,8.662,2.738,-2.822,8.596,-0.101,0.633,-0.63,48.921
'0:01.926',72.131,1219.962,-16.385,0.631,14.874,2.864,-2.794,8.638,2.69,-2.86,8.585,-0.085,0.64,-0.691,48.925
'0:01.930',58.112,1219.449,-16.564,2.063,15.087,2.851,-2.83,8.637,2.661,-2.889,8.574,-0.104,0.631,-0.666,48.929
'0:01.934',55.685,1218.995,-16.518,2.638,15.375,2.839,-2.866,8.612,2.681,-2.87,8.565,-0.096,0.64,-0.637,48.933
'0:01.938',62.146,1218.566,-16.581,3.24,15.689,2.826,-2.913,8.623,2.71,-2.91,8.516,-0.096,0.629,-0.647,48.937
'0:01.941',52.983,1218.108,-16.587,3.843,15.816,2.802,-2.888,8.635,2.662,-2.909,8.535,-0.087,0.645,-0.672,48.941
'0:01.945',56.468,1217.603,-16.706,4.475,16.07,2.765,-2.887,8.659,2.594,-2.906,8.622,-0.087,0.645,-0.672,48.945
'0:01.949',56.742,1217.107,-16.743,5.435,16.458,2.704,-2.886,8.658,2.575,-2.926,8.582,-0.099,0.624,-0.668,48.949
'0:01.953',53.531,1216.641,-16.773,6.132,16.712,2.655,-2.873,8.621,2.537,-2.907,8.533,-0.076,0.636,-0.659,48.952
'0:01.957',45.973,1216.199,-16.65,6.839,17.006,2.594,-2.873,8.56,2.488,-2.916,8.532,-0.087,0.624,-0.691,48.956
'0:01.961',54.588,1215.824,-16.872,6.971,17.18,2.545,-2.897,8.522,2.45,-2.916,8.482,-0.096,0.636,-0.653,48.96
'0:01.965',40.843,1215.57,-16.591,7.122,16.739,2.507,-2.944,8.533,2.392,-2.983,8.471,-0.096,0.636,-0.67,48.964
'0:01.969',39.747,1215.42,-16.63,7.8,16.912,2.519,-2.967,8.569,2.392,-2.983,8.491,-0.073,0.631,-0.651,48.968
'0:01.973',35.987,1215.299,-16.398,8.525,16.886,2.494,-3.003,8.544,2.373,-3.002,8.5,-0.073,0.631,-0.651,48.972
'0:01.977',29.526,1215.14,-16.432,8.987,16.632,2.519,-3.029,8.495,2.374,-3.051,8.441,-0.085,0.629,-0.687,48.976
'0:01.980',54.862,1214.928,-16.597,8.808,16.304,2.518,-3.052,8.531,2.364,-3.08,8.46,-0.087,0.631,-0.651,48.98
'0:01.984',55.959,1214.703,-16.63,9.203,16.037,2.506,-3.076,8.543,2.354,-3.099,8.47,-0.075,0.631,-0.714,48.984
'0:01.988',69.429,1214.553,-16.657,9.599,15.997,2.506,-3.028,8.544,2.354,-3.109,8.45,-0.062,0.619,-0.685,48.988
'0:01.992',66.453,1214.482,-16.63,9.825,16.043,2.494,-3.075,8.543,2.354,-3.109,8.46,-0.075,0.627,-0.664,48.992
'0:01.996',62.694,1214.39,-16.594,9.985,15.622,2.493,-3.087,8.579,2.354,-3.118,8.518,-0.075,0.627,-0.664,48.995
'0:02.000',57.564,1214.186,-16.253,10.673,14.994,2.53,-3.122,8.639,2.353,-3.126,8.557,-0.078,0.627,-0.664,48.999
'0:02.004',57.838,1213.865,-16.19,11.05,14.954,2.53,-3.146,8.663,2.391,-3.175,8.577,-0.064,0.631,-0.697,49.003
'0:02.008',67.785,1213.448,-15.762,10.89,14.091,2.565,-3.207,8.65,2.392,-3.195,8.557,-0.075,0.62,-0.682,49.007
'0:02.012',63.203,1213.007,-15.623,10.72,13.75,2.529,-3.207,8.638,2.401,-3.195,8.587,-0.052,0.633,-0.67,49.011
'0:02.016',61.598,1212.648,-15.779,10.24,13.55,2.492,-3.17,8.614,2.372,-3.223,8.606,-0.073,0.613,-0.705,49.015
'0:02.020',59.718,1212.477,-15.766,10.155,13.837,2.395,-3.133,8.577,2.305,-3.174,8.556,-0.083,0.62,-0.674,49.019
'0:02.023',75.068,1212.561,-15.527,10.362,13.664,2.31,-3.059,8.565,2.229,-3.115,8.526,-0.083,0.62,-0.674,49.023
'0:02.027',81.569,1212.907,-15.206,9.872,13.082,2.249,-3.033,8.589,2.219,-3.124,8.565,-0.083,0.624,-0.687,49.027
'0:02.031',91.789,1213.457,-14.915,10.127,12.226,2.261,-3.044,8.637,2.161,-3.132,8.593,-0.062,0.624,-0.672,49.031
'0:02.035',92.338,1214.115,-14.544,10.88,11.27,2.261,-3.069,8.6,2.161,-3.103,8.583,-0.064,0.617,-0.705,49.034
'0:02.039',78.319,1214.765,-14.411,11.04,10.776,2.261,-3.106,8.527,2.162,-3.125,8.486,-0.061,0.617,-0.682,49.038
'0:02.043',94.217,1215.274,-14.106,10.918,10.208,2.297,-3.168,8.514,2.162,-3.136,8.427,-0.057,0.624,-0.739,49.042
'0:02.047',96.645,1215.59,-14.027,11.379,9.86,2.309,-3.192,8.49,2.162,-3.184,8.417,-0.057,0.612,-0.691,49.046
'0:02.051',88.578,1215.749,-13.739,11.653,9.619,2.321,-3.193,8.441,2.162,-3.213,8.446,-0.068,0.612,-0.691,49.05
'0:02.055',91.241,1215.815,-13.437,12.208,9.405,2.272,-3.206,8.368,2.143,-3.262,8.396,-0.062,0.626,-0.666,49.054
'0:02.059',110.664,1215.795,-13.431,12.472,8.991,2.259,-3.266,8.367,2.133,-3.292,8.367,-0.075,0.622,-0.676,49.058
'0:02.063',110.39,1215.674,-13.235,12.802,8.503,2.209,-3.348,8.389,2.114,-3.329,8.405,-0.055,0.622,-0.714,49.062
'0:02.066',127.934,1215.47,-12.835,13.424,7.875,2.197,-3.372,8.4,2.076,-3.378,8.345,-0.064,0.615,-0.699,49.066
'0:02.070',134.121,1215.174,-12.523,13.979,8.042,2.159,-3.431,8.399,1.999,-3.444,8.383,-0.038,0.624,-0.687,49.07
'0:02.074',152.447,1214.753,-12.122,14.092,7.681,2.085,-3.477,8.409,1.989,-3.435,8.344,-0.038,0.624,-0.687,49.074
'0:02.078',158.674,1214.165,-11.682,13.791,7.741,2.036,-3.487,8.444,1.883,-3.53,8.39,-0.054,0.61,-0.718,49.077
'0:02.082',145.438,1213.473,-11.4,13.923,7.614,1.962,-3.534,8.442,1.883,-3.559,8.37,-0.055,0.615,-0.689,49.081
'0:02.086',146.534,1212.861,-10.413,13.744,7.674,1.938,-3.511,8.37,1.845,-3.589,8.31,-0.062,0.627,-0.705,49.085
'0:02.090',133.298,1212.511,-9.89,12.99,7.353,1.95,-3.548,8.321,1.797,-3.598,8.29,-0.047,0.619,-0.676,49.089
'0:02.094',149.471,1212.536,-9.516,11.719,6.919,1.974,-3.548,8.321,1.816,-3.608,8.271,-0.054,0.617,-0.722,49.093
'0:02.098',125.78,1212.944,-8.651,10.437,6.725,1.999,-3.549,8.334,1.874,-3.589,8.301,-0.489,0.615,-0.689,49.097
'0:02.102',131.419,1213.603,-8.287,10.032,6.504,2.06,-3.539,8.298,1.903,-3.58,8.292,-0.041,0.615,-0.689,49.101
'0:02.105',115.52,1214.324,-7.658,9.194,6.464,2.109,-3.552,8.299,1.961,-3.582,8.264,-0.047,0.624,-0.747,49.105
'0:02.109',99.895,1215.032,-7.058,8.798,6.07,2.145,-3.6,8.371,1.98,-3.621,8.244,-0.054,0.612,-0.708,49.109
'0:02.113',99.347,1215.765,-6.813,8.817,6.625,2.157,-3.623,8.419,1.99,-3.679,8.273,-0.045,0.62,-0.68,49.113
'0:02.117',77.222,1216.536,-6.326,8.619,7.26,2.144,-3.671,8.406,1.999,-3.698,8.303,-0.04,0.615,-0.674,49.117
'0:02.121',53.257,1217.249,-5.637,8.261,7.5,2.132,-3.671,8.394,2.037,-3.68,8.294,-0.029,0.619,-0.718,49.12
'0:02.125',37.593,1217.841,-5.038,7.197,7.413,2.169,-3.683,8.406,2.104,-3.738,8.324,-0.029,0.619,-0.718,49.124
'0:02.129',49.458,1218.333,-4.243,6.434,7.166,2.205,-3.732,8.418,2.086,-3.768,8.284,-0.05,0.612,-0.71,49.128
'0:02.133',61.049,1218.737,-3.686,6.038,7.3,2.229,-3.745,8.382,2.076,-3.767,8.333,-0.026,0.619,-0.708,49.132
'0:02.137',57.564,1218.991,-3.306,5.115,7.627,2.241,-3.783,8.309,2.114,-3.769,8.265,-0.045,0.599,-0.72,49.136
'0:02.141',39.512,1219.033,-2.66,3.825,7.821,2.241,-3.759,8.297,2.115,-3.76,8.187,-0.04,0.617,-0.693,49.14
'0:02.145',41.391,1218.904,-2.242,2.6,7.754,2.217,-3.734,8.321,2.115,-3.76,8.226,-0.048,0.622,-0.701,49.144
'0:02.148',33.56,1218.708,-1.749,1.837,7.908,2.157,-3.66,8.346,2.066,-3.738,8.294,-0.033,0.617,-0.685,49.148
'0:02.152',26.276,1218.474,-1.451,1.432,8.65,2.108,-3.611,8.334,1.999,-3.679,8.293,-0.033,0.617,-0.685,49.152
'0:02.156',24.122,1218.149,-0.861,0.405,8.73,2.097,-3.551,8.347,1.96,-3.649,8.302,-0.045,0.61,-0.724,49.156
'0:02.160',39.512,1217.757,-0.04,-0.82,7.948,2.17,-3.564,8.372,2.018,-3.631,8.274,-0.02,0.612,-0.699,49.159
'0:02.164',41.117,1217.382,0.215,-1.404,7.166,2.317,-3.531,8.411,2.134,-3.613,8.315,-0.027,0.608,-0.739,49.163
'0:02.168',48.401,1217.037,0.835,-1.893,6.765,2.464,-3.545,8.449,2.181,-3.564,8.365,-0.045,0.612,-0.699,49.167
'0:02.172',56.468,1216.653,1.192,-2.157,7.226,2.525,-3.546,8.462,2.287,-3.586,8.338,-0.013,0.599,-0.768,49.171
'0:02.176',55.136,1216.241,1.646,-2.355,7.587,2.501,-3.534,8.474,2.287,-3.576,8.347,-0.013,0.599,-0.768,49.175
'0:02.180',57.016,1215.99,2.001,-2.751,8.369,2.477,-3.473,8.475,2.258,-3.566,8.357,-0.012,0.604,-0.724,49.179
'0:02.184',44.093,1216.145,2.365,-3.212,8.71,2.416,-3.411,8.499,2.277,-3.526,8.416,-0.048,0.61,-0.712,49.183
'0:02.188',49.184,1216.874,2.759,-3.542,8.77,2.356,-3.337,8.524,2.238,-3.437,8.455,-0.029,0.619,-0.672,49.187
'0:02.191',38.689,1218.149,3.06,-4.183,8.57,2.332,-3.289,8.513,2.219,-3.339,8.504,-0.031,0.613,-0.68,49.191
'0:02.195',37.593,1219.75,3.213,-4.606,8.577,2.32,-3.252,8.501,2.238,-3.31,8.476,-0.027,0.615,-0.724,49.195
'0:02.199',41.391,1221.308,3.726,-4.851,8.122,2.357,-3.241,8.502,2.21,-3.272,8.466,-0.045,0.612,-0.703,49.199
'0:02.203',29.526,1222.471,4.018,-5.03,7.474,2.418,-3.242,8.527,2.219,-3.301,8.436,-0.045,0.612,-0.703,49.202
'0:02.207',64.574,1223.075,4.137,-5.077,6.986,2.467,-3.279,8.539,2.296,-3.282,8.497,-0.024,0.615,-0.708,49.206
'0:02.211',159.457,1223.167,4.299,-4.738,7.066,2.405,-3.326,8.537,2.334,-3.341,8.497,-0.033,0.606,-0.718,49.21
'0:02.215',280.224,1222.875,4.475,-4.267,8.089,2.282,-3.384,8.474,2.219,-3.408,8.445,-0.043,0.613,-0.693,49.214
'0:02.219',444.693,1222.3,4.76,-4.079,8.757,2.134,-3.442,8.422,2.095,-3.465,8.374,-0.043,0.622,-0.708,49.218
'0:02.223',520.467,1221.542,4.955,-4.277,8.831,2.036,-3.475,8.444,2.007,-3.481,8.49,-0.029,0.617,-0.685,49.222
'0:02.227',473.554,1220.796,5.309,-4.437,7.908,1.987,-3.522,8.467,1.873,-3.588,8.379,-0.029,0.617,-0.685,49.226
'0:02.230',249.523,1220.279,5.415,-4.201,7.627,1.974,-3.558,8.454,1.854,-3.578,8.389,-0.04,0.613,-0.724,49.23
'0:02.234',10.377,1220.108,5.329,-3.74,7.233,1.912,-3.581,8.453,1.796,-3.596,8.407,-0.02,0.615,-0.676,49.234
'0:02.238',-234.682,1220.241,5.382,-4.107,7.119,1.863,-3.579,8.489,1.739,-3.654,8.357,-0.02,0.61,-0.747,49.238
'0:02.242',-541.495,1220.471,5.425,-4.192,7.474,1.79,-3.576,8.548,1.681,-3.643,8.385,-0.04,0.612,-0.703,49.242
'0:02.246',-665.748,1220.558,5.627,-3.504,7.367,1.766,-3.575,8.584,1.68,-3.612,8.483,-0.038,0.62,-0.687,49.245
'0:02.250',-652.551,1220.408,5.667,-3.146,6.945,1.79,-3.527,8.622,1.642,-3.582,8.483,-0.031,0.617,-0.676,49.249
'0:02.254',-569.807,1220.15,5.69,-3.278,6.484,1.852,-3.527,8.647,1.679,-3.552,8.572,-0.031,0.617,-0.676,49.253
'0:02.258',-425.544,1220.062,5.823,-3.099,5.99,1.901,-3.516,8.696,1.718,-3.532,8.631,-0.024,0.626,-0.722,49.257
'0:02.262',-316.094,1220.341,5.849,-2.374,5.488,1.962,-3.469,8.685,1.823,-3.553,8.633,-0.04,0.619,-0.703,49.261
'0:02.266',-157.577,1221.012,5.965,-1.865,5.602,1.987,-3.434,8.674,1.852,-3.515,8.614,-0.026,0.622,-0.72,49.265
'0:02.270',-43.271,1221.937,5.925,-1.404,5.227,2.012,-3.398,8.688,1.872,-3.497,8.566,-0.038,0.613,-0.722,49.269
'0:02.273',27.921,1222.938,5.856,-1.027,5.067,2.025,-3.374,8.7,1.871,-3.447,8.615,-0.031,0.624,-0.691,49.273
'0:02.277',50.555,1223.913,5.743,-0.32,4.612,2.062,-3.351,8.677,1.891,-3.4,8.576,-0.031,0.624,-0.691,49.277
'0:02.281',66.453,1224.834,5.498,-0.49,3.79,2.111,-3.353,8.666,1.958,-3.352,8.617,-0.017,0.619,-0.712,49.281
'0:02.285',91.515,1225.601,5.713,-0.188,3.135,2.16,-3.365,8.69,1.977,-3.352,8.637,-0.029,0.624,-0.72,49.284
'0:02.289',87.756,1226.072,5.614,0.443,2.714,2.171,-3.401,8.702,2.016,-3.41,8.647,-0.036,0.615,-0.716,49.288
'0:02.293',92.886,1226.155,5.839,0.575,2.54,2.159,-3.425,8.689,2.044,-3.459,8.666,-0.017,0.62,-0.697,49.292
'0:02.297',99.621,1225.867,5.558,0.122,2.627,2.11,-3.437,8.652,2.055,-3.47,8.588,-0.027,0.617,-0.739,49.296
'0:02.301',129.813,1225.242,5.362,-0.584,2.273,2.061,-3.437,8.615,1.978,-3.441,8.519,-0.038,0.62,-0.703,49.3
'0:02.305',153.27,1224.23,5.319,-1.121,2.233,2.013,-3.351,8.64,1.91,-3.41,8.567,-0.038,0.62,-0.703,49.304
'0:02.309',134.943,1222.854,5.24,-0.895,1.985,1.952,-3.326,8.628,1.862,-3.409,8.586,-0.036,0.626,-0.699,49.308
'0:02.313',111.761,1221.321,5.379,-1.046,1.417,2.014,-3.267,8.629,1.881,-3.341,8.586,-0.02,0.62,-0.676,49.312
'0:02.316',118.77,1219.991,5.299,-1.159,0.595,2.062,-3.328,8.665,1.882,-3.361,8.557,-0.027,0.624,-0.718,49.316
'0:02.320',113.914,1219.133,5.488,-0.895,0.214,2.16,-3.365,8.69,1.968,-3.42,8.617,-0.026,0.624,-0.668,49.32
'0:02.324',119.279,1218.812,5.588,-0.443,0.087,2.22,-3.403,8.703,2.045,-3.421,8.608,-0.02,0.624,-0.708,49.324
'0:02.328',147.866,1218.883,5.607,-0.575,0.241,2.257,-3.464,8.678,2.112,-3.471,8.619,-0.02,0.624,-0.708,49.327
'0:02.332',140.308,1219.124,5.376,-0.414,0.582,2.257,-3.464,8.678,2.112,-3.471,8.628,-0.036,0.61,-0.718,49.331
'0:02.336',150.019,1219.341,5.558,-0.283,0.916,2.22,-3.463,8.665,2.073,-3.517,8.686,-0.034,0.624,-0.687,49.335
'0:02.340',147.866,1219.42,5.478,-0.113,0.976,2.183,-3.475,8.64,2.074,-3.529,8.588,-0.038,0.631,-0.701,49.339
'0:02.344',152.721,1219.308,5.677,-0.349,0.668,2.146,-3.487,8.615,2.035,-3.528,8.588,-0.027,0.631,-0.718,49.343
'0:02.348',147.043,1219.112,5.78,-0.782,0.455,2.134,-3.499,8.603,2.065,-3.549,8.529,-0.038,0.622,-0.708,49.347
'0:02.352',154.327,1219.095,5.982,-1.422,0.414,2.097,-3.521,8.638,2.026,-3.539,8.548,-0.013,0.626,-0.691,49.351
'0:02.355',148.688,1219.524,6.051,-1.884,0.267,2.072,-3.545,8.637,1.949,-3.576,8.556,-0.013,0.626,-0.691,49.355
'0:02.359',163.764,1220.533,6.363,-2.704,0.167,2.072,-3.509,8.626,1.93,-3.497,8.576,-0.026,0.624,-0.733,49.359
'0:02.363',152.721,1222.062,6.389,-3.467,-0.361,2.048,-3.496,8.662,1.939,-3.478,8.596,-0.041,0.624,-0.687,49.363
'0:02.367',162.433,1223.871,6.681,-4.635,-0.675,2.073,-3.448,8.675,1.948,-3.468,8.606,-0.038,0.627,-0.701,49.367
'0:02.371',168.072,1225.655,6.833,-5.19,-0.943,2.086,-3.4,8.664,1.948,-3.429,8.626,-0.029,0.62,-0.668,49.37
'0:02.375',178.332,1227.159,6.989,-5.718,-1.016,2.123,-3.366,8.629,1.948,-3.419,8.626,-0.027,0.617,-0.71,49.374
'0:02.379',163.764,1228.33,7.214,-6.613,-1.531,2.184,-3.343,8.63,2.006,-3.401,8.627,-0.027,0.617,-0.68,49.378
'0:02.383',170.774,1229.222,7.784,-7.338,-2.179,2.258,-3.32,8.644,2.112,-3.335,8.6,-0.036,0.62,-0.68,49.382
'0:02.387',178.057,1229.826,7.711,-7.188,-2.5,2.344,-3.311,8.621,2.17,-3.337,8.543,-0.026,0.633,-0.741,49.386
'0:02.391',165.683,1230.014,8.294,-7.235,-3.142,2.368,-3.324,8.609,2.199,-3.338,8.553,-0.041,0.617,-0.712,49.39
'0:02.395',176.452,1229.651,8.449,-7.602,-3.476,2.393,-3.312,8.622,2.237,-3.327,8.612,-0.033,0.626,-0.682,49.394
'0:02.398',194.778,1228.755,8.562,-7.545,-3.296,2.356,-3.299,8.621,2.266,-3.338,8.603,-0.038,0.629,-0.68,49.398
'0:02.402',216.904,1227.538,8.691,-7.677,-3.449,2.283,-3.287,8.56,2.19,-3.319,8.514,-0.047,0.629,-0.666,49.402
'0:02.406',224.148,1226.355,8.3,-7.772,-3.563,2.173,-3.249,8.499,2.065,-3.289,8.453,-0.047,0.629,-0.666,49.406
'0:02.410',228.495,1225.576,8.641,-7.951,-3.396,2.1,-3.2,8.487,2.017,-3.307,8.482,-0.034,0.631,-0.678,49.409
'0:02.414',224.696,1225.505,8.572,-7.837,-3.81,2.051,-3.222,8.51,1.941,-3.268,8.422,-0.05,0.635,-0.691,49.413
'0:02.418',243.297,1226.322,8.873,-7.376,-4.272,2.001,-3.293,8.483,1.883,-3.248,8.402,-0.05,0.627,-0.674,49.417
'0:02.422',248.427,1228.064,8.8,-6.933,-4.378,1.988,-3.354,8.458,1.883,-3.336,8.372,-0.052,0.633,-0.664,49.421
'0:02.426',254.614,1230.618,9.062,-6.877,-4.987,1.976,-3.413,8.505,1.912,-3.404,8.372,-0.052,0.635,-0.689,49.425
'0:02.430',289.427,1233.744,9.363,-6.603,-5.194,2.012,-3.461,8.541,1.854,-3.461,8.409,-0.052,0.635,-0.67,49.429
'0:02.434',316.094,1237.074,9.324,-6.406,-5.288,1.962,-3.531,8.576,1.824,-3.546,8.486,-0.033,0.633,-0.67,49.433
'0:02.438',321.224,1240.174,9.612,-6.142,-5.254,1.913,-3.542,8.599,1.805,-3.565,8.476,-0.038,0.627,-0.705,49.437
'0:02.441',330.661,1242.641,10.281,-6.933,-5.455,1.864,-3.541,8.598,1.776,-3.592,8.573,-0.047,0.633,-0.67,49.441
'0:02.445',351.964,1244.225,10.751,-7.319,-6.27,1.876,-3.517,8.611,1.737,-3.553,8.533,-0.033,0.629,-0.733,49.445
'0:02.449',351.416,1244.883,11.079,-7.837,-7.28,1.877,-3.48,8.624,1.738,-3.544,8.514,-0.047,0.622,-0.705,49.449
'0:02.453',361.676,1244.763,10.913,-8.779,-7.634,1.902,-3.433,8.625,1.757,-3.34,8.555,-0.048,0.633,-0.664,49.452
'0:02.457',353.021,1244.154,11.351,-9.514,-8.383,1.951,-3.398,8.626,1.786,-3.448,8.516,-0.048,0.633,-0.664,49.456
'0:02.461',363.281,1243.354,11.592,-9.891,-8.904,1.988,-3.362,8.639,1.872,-3.39,8.576,-0.057,0.633,-0.672,49.46
'0:02.465',367.04,1242.537,11.808,-10.136,-9.813,2.025,-3.351,8.664,1.853,-3.408,8.605,-0.041,0.638,-0.697,49.464
'0:02.469',380.002,1241.741,12.156,-10.56,-10.876,2.074,-3.328,8.629,1.92,-3.352,8.548,-0.048,0.633,-0.68,49.468
'0:02.473',389.44,1241.016,12.185,-10.974,-11.424,2.112,-3.246,8.595,1.968,-3.324,8.539,-0.031,0.635,-0.666,49.472
'0:02.477',383.213,1240.474,12.152,-11.153,-11.986,2.125,-3.186,8.596,2.016,-3.276,8.54,-0.052,0.627,-0.699,49.476
'0:02.480',395.627,1240.137,12.218,-11.144,-12.066,2.126,-3.102,8.598,1.988,-3.132,8.473,-0.052,0.633,-0.666,49.48
'0:02.484',398.603,1239.895,12.315,-10.55,-12.754,2.139,-3.041,8.635,2.026,-3.102,8.523,-0.066,0.633,-0.666,49.484
'0:02.488',393.747,1239.645,12.782,-10.485,-13.757,2.139,-3.005,8.636,2.055,-3.093,8.523,-0.066,0.642,-0.676,49.488
'0:02.492',387.012,1239.428,12.884,-9.966,-14.566,2.213,-2.983,8.649,2.065,-3.082,8.582,-0.047,0.638,-0.689,49.492
'0:02.496',397.506,1239.374,13.09,-9.288,-15.549,2.273,-3.056,8.673,2.122,-3.101,8.651,-0.059,0.633,-0.685,49.495
'0:02.500',378.906,1239.541,13.424,-8.789,-16.391,2.334,-3.093,8.661,2.17,-3.122,8.662,-0.062,0.633,-0.662,49.499
'0:02.504',351.69,1239.882,13.851,-8.139,-16.959,2.321,-3.154,8.612,2.219,-3.192,8.564,-0.052,0.64,-0.718,49.503
'0:02.508',330.387,1240.299,13.576,-8.431,-17.213,2.296,-3.179,8.562,2.19,-3.211,8.544,-0.052,0.64,-0.718,49.507
'0:02.512',289.936,1240.691,14.272,-8.459,-17.12,2.223,-3.177,8.586,2.132,-3.201,8.523,-0.068,0.629,-0.666,49.511
'0:02.516',252.46,1240.991,14.471,-8.073,-17.093,2.125,-3.151,8.56,2.055,-3.171,8.513,-0.061,0.636,-0.643,49.515
'0:02.520',219.057,1241.187,14.981,-8.214,-17.795,2.113,-3.115,8.549,1.998,-3.16,8.522,-0.057,0.645,-0.632,49.519
'0:02.523',191.019,1241.308,15.18,-8.657,-18.931,2.138,-3.127,8.549,2.017,-3.151,8.483,-0.054,0.645,-0.682,49.523
'0:02.527',167.289,1241.42,15.852,-8.845,-19.8,2.187,-3.128,8.586,2.075,-3.113,8.523,-0.068,0.638,-0.666,49.527
'0:02.531',141.678,1241.574,16.034,-8.864,-20.368,2.223,-3.141,8.562,2.084,-3.161,8.533,-0.05,0.643,-0.676,49.531
'0:02.535',121.433,1241.808,16.17,-8.704,-20.589,2.272,-3.143,8.49,2.142,-3.173,8.456,-0.05,0.643,-0.676,49.534
'0:02.539',106.083,1242.145,16.392,-9.467,-20.489,2.285,-3.073,8.443,2.133,-3.145,8.397,-0.061,0.651,-0.674,49.538
'0:02.543',78.867,1242.575,16.365,-10.089,-20.281,2.237,-3.012,8.431,2.123,-3.125,8.446,-0.082,0.642,-0.647,49.542
'0:02.547',70.213,1243.016,16.521,-10.032,-20.007,2.263,-2.903,8.482,2.114,-3.047,8.427,-0.083,0.647,-0.653,49.546
'0:02.551',58.622,1243.412,16.756,-9.26,-20.148,2.288,-2.855,8.483,2.095,-2.959,8.447,-0.066,0.643,-0.662,49.55
'0:02.555',38.689,1243.712,17.157,-8.393,-20.535,2.373,-2.856,8.545,2.191,-2.882,8.488,-0.08,0.642,-0.666,49.554
'0:02.559',26.276,1243.892,17.564,-7.611,-20.997,2.507,-2.918,8.606,2.287,-2.904,8.47,-0.08,0.642,-0.666,49.558
'0:02.563',31.406,1244.062,17.717,-6.556,-21.244,2.654,-2.981,8.656,2.401,-3,8.618,-0.057,0.645,-0.685,49.562
'0:02.566',35.987,1244.429,18.101,-5.445,-21.311,2.726,-3.102,8.691,2.468,-3.078,8.647,-0.071,0.64,-0.695,49.566
'0:02.570',38.964,1245.113,18.399,-4.832,-20.91,2.762,-3.138,8.751,2.564,-3.186,8.677,-0.087,0.638,-0.649,49.57
'0:02.574',36.81,1246.017,18.707,-4.512,-20.382,2.7,-3.208,8.785,2.545,-3.254,8.667,-0.078,0.647,-0.626,49.574
'0:02.578',27.372,1246.884,19.088,-4.54,-19.499,2.638,-3.23,8.808,2.467,-3.252,8.695,-0.076,0.645,-0.618,49.577
'0:02.582',18.483,1247.488,19.883,-4.465,-19.205,2.553,-3.204,8.82,2.399,-3.249,8.782,-0.078,0.645,-0.662,49.581
'0:02.586',36.536,1247.755,20.3,-5.04,-18.991,2.516,-3.215,8.831,2.448,-3.251,8.743,-0.078,0.645,-0.662,49.585
'0:02.590',20.363,1247.734,21.016,-6.227,-19.212,2.504,-3.214,8.879,2.39,-3.229,8.801,-0.087,0.649,-0.639,49.589
'0:02.594',18.992,1247.596,21.569,-7.611,-19.586,2.541,-3.214,8.88,2.409,-3.249,8.821,-0.071,0.654,-0.682,49.593
'0:02.598',27.921,1247.534,22.175,-9.222,-20.054,2.59,-3.192,8.857,2.419,-3.231,8.763,-0.094,0.64,-0.653,49.597
'0:02.602',19.541,1247.688,22.953,-11.012,-20.088,2.627,-3.122,8.798,2.429,-3.192,8.734,-0.101,0.651,-0.632,49.601
'0:02.605',21.146,1248.017,23.033,-12.726,-20.128,2.641,-3.051,8.739,2.448,-3.182,8.763,-0.076,0.656,-0.618,49.605
'0:02.609',19.541,1248.367,22.98,-16.457,-19.412,2.606,-2.884,8.633,2.43,-3.011,8.589,-0.076,0.656,-0.618,49.609
'0:02.613',17.113,1248.567,22.711,-17.455,-18.35,2.571,-2.681,8.539,2.421,-2.865,8.56,-0.096,0.649,-0.659,49.613
'0:02.617',27.098,1248.559,22.42,-17.879,-18.076,2.561,-2.476,8.543,2.393,-2.663,8.454,-0.106,0.652,-0.618,49.617
'0:02.621',35.987,1248.388,21.91,-17.889,-17.975,2.649,-2.321,8.583,2.576,-2.443,8.479,-0.111,0.659,-0.626,49.62
'0:02.625',37.593,1248.205,21.738,-17.154,-17.848,2.759,-2.275,8.621,2.499,-2.392,8.497,-0.094,0.656,-0.605,49.624
'0:02.629',50.555,1248.167,21.33,-16.089,-17.086,2.918,-2.29,8.66,2.681,-2.374,8.579,-0.101,0.654,-0.639,49.628
'0:02.633',47.304,1248.372,21.128,-14.705,-16.177,3.065,-2.329,8.685,2.758,-2.375,8.599,-0.103,0.656,-0.605,49.632
'0:02.637',28.156,1248.78,20.525,-13.734,-15.201,3.199,-2.379,8.735,2.941,-2.36,8.563,-0.103,0.656,-0.605,49.636
'0:02.641',23.848,1249.222,19.803,-12.378,-13.67,3.272,-2.44,8.795,3.027,-2.408,8.633,-0.096,0.666,-0.659,49.64
'0:02.645',23.574,1249.493,19.396,-10.701,-12.053,3.247,-2.438,8.843,3.074,-2.447,8.682,-0.115,0.654,-0.62,49.644
'0:02.648',16.564,1249.434,18.717,-9.298,-10.448,3.186,-2.424,8.879,3.026,-2.435,8.74,-0.113,0.666,-0.597,49.648
'0:02.652',27.921,1248.984,18.502,-8.601,-9.532,3.174,-2.434,8.951,2.997,-2.473,8.769,-0.089,0.665,-0.572,49.652
'0:02.656',26.276,1248.163,18.389,-8.487,-8.891,3.149,-2.48,9.047,2.957,-2.489,8.953,-0.108,0.67,-0.628,49.656
'0:02.660',9.555,1247.08,17.975,-8.271,-8.256,3.111,-2.515,9.082,2.947,-2.498,8.963,-0.108,0.67,-0.628,49.659
'0:02.664',10.925,1245.954,17.293,-8.657,-7.527,3.087,-2.539,9.057,2.937,-2.564,9.04,-0.115,0.661,-0.609,49.663
'0:02.668',16.564,1245.067,17.058,-9.891,-6.832,3.038,-2.549,9.056,2.928,-2.585,8.981,-0.096,0.666,-0.62,49.667
'0:02.672',8.772,1244.642,16.607,-10.485,-6.11,2.977,-2.548,9.067,2.889,-2.593,9.029,-0.113,0.656,-0.63,49.671
'0:02.676',8.772,1244.717,16.438,-11.219,-5.515,2.941,-2.45,9.093,2.85,-2.554,9,-0.124,0.658,-0.593,49.675
'0:02.680',10.925,1245.146,15.948,-11.709,-5.187,2.966,-2.428,9.057,2.841,-2.505,8.99,-0.12,0.67,-0.603,49.679
'0:02.684',12.257,1245.709,15.312,-12.284,-5.321,3.052,-2.381,9.059,2.87,-2.448,8.972,-0.11,0.668,-0.591,49.683
'0:02.688',0.666,1246.204,14.868,-12.858,-5.588,3.125,-2.383,9.048,2.928,-2.458,8.992,-0.11,0.668,-0.591,49.687
'0:02.691',7.401,1246.475,14.418,-12.99,-5.729,3.224,-2.325,9.051,3.044,-2.364,8.956,-0.117,0.661,-0.62,49.691
'0:02.695',-8.498,1246.425,13.514,-13.075,-5.114,3.237,-2.279,8.991,3.092,-2.337,8.889,-0.104,0.666,-0.586,49.695
'0:02.699',-4.19,1246.046,12.546,-12.679,-4.439,3.189,-2.206,8.968,3.073,-2.269,8.869,-0.117,0.672,-0.649,49.699
'0:02.703',-2.036,1245.404,11.675,-11.963,-3.824,3.141,-2.109,8.957,3.025,-2.151,8.889,-0.125,0.666,-0.599,49.702
'0:02.707',0.392,1244.633,10.94,-10.956,-3.242,3.093,-2.024,8.957,2.987,-2.102,8.869,-0.118,0.668,-0.574,49.706
'0:02.711',-10.377,1243.896,9.94,-10.061,-3.068,3.044,-1.974,8.982,2.919,-2.053,8.859,-0.118,0.668,-0.574,49.71
'0:02.715',-9.32,1243.321,8.969,-9.053,-2.941,3.044,-1.986,8.994,2.872,-2.024,8.799,-0.127,0.668,-0.57,49.714
'0:02.719',11.983,1242.962,8.198,-7.781,-2.761,3.044,-1.985,9.03,2.852,-2.091,8.838,-0.108,0.677,-0.616,49.718
'0:02.723',-1.488,1242.783,7.264,-6.735,-2.453,3.043,-2.069,9.053,2.891,-2.091,8.848,-0.124,0.663,-0.597,49.722
'0:02.727',1.488,1242.683,6.283,-5.501,-2.667,3.055,-2.117,9.076,2.929,-2.14,8.887,-0.106,0.668,-0.601,49.726
'0:02.730',-10.377,1242.529,5.558,-4.559,-2.286,3.017,-2.164,9.087,2.89,-2.187,8.916,-0.125,0.658,-0.614,49.73
'0:02.734',-10.103,1242.195,4.471,-3.523,-1.912,2.956,-2.21,9.109,2.861,-2.216,8.925,-0.125,0.668,-0.561,49.734
'0:02.738',-4.19,1241.549,3.696,-2.647,-1.451,2.87,-2.208,9.108,2.755,-2.252,8.962,-0.125,0.668,-0.561,49.738
'0:02.742',-16.055,1240.508,2.839,-1.988,-1.076,2.785,-2.182,9.108,2.688,-2.251,8.951,-0.12,0.666,-0.607,49.742
'0:02.746',-13.627,1239.091,1.898,-1.649,-0.668,2.736,-2.156,9.131,2.611,-2.249,8.989,-0.12,0.675,-0.618,49.745
'0:02.750',-11.748,1237.445,1.037,-1.432,-1.13,2.699,-2.143,9.156,2.543,-2.208,9.017,-0.131,0.661,-0.611,49.749
'0:02.754',-27.921,1235.778,0.421,-0.98,-1.297,2.724,-2.156,9.156,2.552,-2.199,9.027,-0.104,0.666,-0.595,49.753
'0:02.758',-34.93,1234.319,-0.5,-0.452,-1.517,2.723,-2.192,9.143,2.591,-2.248,9.017,-0.12,0.666,-0.641,49.757
'0:02.762',-29.526,1233.244,-1.573,-0.349,-1.718,2.747,-2.241,9.13,2.601,-2.259,8.979,-0.12,0.666,-0.641,49.761
'0:02.766',-45.151,1232.619,-2.146,-0.198,-1.845,2.747,-2.253,9.13,2.562,-2.306,8.997,-0.131,0.665,-0.595,49.765
'0:02.770',-60.54,1232.352,-3.203,0.575,-1.838,2.711,-2.229,9.057,2.582,-2.289,8.919,-0.131,0.665,-0.593,49.769
'0:02.773',-45.151,1232.277,-4.216,1.422,-1.417,2.687,-2.169,9.022,2.553,-2.259,8.909,-0.118,0.67,-0.572,49.773
'0:02.777',-36.81,1232.273,-6.098,2.421,-1.37,2.65,-2.144,9.07,2.505,-2.229,8.928,-0.117,0.674,-0.614,49.777
'0:02.781',-29.8,1232.285,-6.886,3.9,-0.916,2.614,-2.129,9.155,2.495,-2.199,8.938,-0.129,0.663,-0.582,49.781
'0:02.785',-43.545,1232.235,-7.823,5.388,0.013,2.516,-2.14,9.08,2.418,-2.178,8.976,-0.099,0.67,-0.637,49.784
'0:02.789',-27.921,1232.035,-8.247,5.935,-0.047,2.528,-2.143,8.947,2.544,-2.192,8.861,-0.099,0.67,-0.637,49.788
'0:02.793',-30.858,1231.689,-8.89,5.379,-2.012,2.711,-2.172,8.901,2.554,-2.204,8.773,-0.122,0.658,-0.611,49.792
'0:02.797',-36.81,1231.289,-9.979,5.699,-4.225,3.054,-2.215,8.99,2.814,-2.265,8.836,-0.122,0.663,-0.582,49.796
'0:02.801',-27.372,1230.885,-11.357,7.611,-4.753,3.31,-2.267,9.065,2.986,-2.334,8.916,-0.103,0.668,-0.586,49.8
'0:02.805',-41.666,1230.522,-12.487,9.929,-3.61,3.396,-2.305,9.09,3.15,-2.347,8.889,-0.12,0.649,-0.62,49.804
'0:02.809',-28.704,1230.26,-13.033,11.587,-1.979,3.272,-2.374,9.099,3.159,-2.405,8.948,-0.127,0.659,-0.588,49.808
'0:02.813',-32.737,1230.089,-13.331,12.576,-1.531,3.15,-2.369,9.182,3.1,-2.431,9.054,-0.127,0.659,-0.588,49.812
'0:02.816',-52.708,1229.951,-13.858,12.84,-1.35,3.002,-2.414,9.179,2.927,-2.427,9.09,-0.134,0.67,-0.603,49.816
'0:02.820',-40.569,1229.785,-14.404,12.369,-1.751,2.905,-2.388,9.142,2.869,-2.437,9.05,-0.111,0.666,-0.586,49.82
'0:02.824',-40.569,1229.56,-14.951,12.114,-1.798,2.831,-2.399,9.104,2.706,-2.424,9.057,-0.122,0.658,-0.616,49.824
'0:02.828',-46.247,1229.33,-15.61,11.822,-1.464,2.746,-2.374,9.055,2.668,-2.414,9.027,-0.103,0.658,-0.588,49.827
'0:02.832',-50.281,1229.247,-15.378,11.662,-1.25,2.672,-2.361,9.018,2.572,-2.385,8.928,-0.113,0.663,-0.651,49.831
'0:02.836',-52.434,1229.406,-15.577,11.266,-1.517,2.648,-2.374,8.969,2.543,-2.404,8.918,-0.122,0.656,-0.609,49.835
'0:02.840',-55.136,1229.793,-15.849,11.097,-1.584,2.66,-2.411,8.944,2.505,-2.424,8.897,-0.122,0.656,-0.609,49.839
'0:02.844',-54.862,1230.356,-16.352,10.918,-1.852,2.696,-2.497,8.883,2.554,-2.514,8.81,-0.111,0.668,-0.58,49.843
'0:02.848',-47.03,1230.972,-16.279,10.852,-1.531,2.719,-2.594,8.833,2.506,-2.552,8.76,-0.124,0.658,-0.584,49.847
'0:02.852',-37.084,1231.464,-17.001,11.116,-1.431,2.742,-2.704,8.771,2.574,-2.663,8.643,-0.099,0.668,-0.601,49.851
'0:02.855',-22.517,1231.693,-17.028,11.229,-1.243,2.791,-2.778,8.758,2.603,-2.739,8.721,-0.122,0.656,-0.605,49.855
'0:02.859',-21.968,1231.639,-17.329,11.69,-1.029,2.802,-2.838,8.769,2.641,-2.885,8.749,-0.101,0.661,-0.618,49.859
'0:02.863',-19.815,1231.368,-17.849,11.963,0.127,2.753,-2.873,8.78,2.573,-2.971,8.767,-0.101,0.661,-0.634,49.863
'0:02.867',-29.252,1230.981,-17.806,12.416,0.762,2.703,-2.919,8.815,2.544,-2.932,8.748,-0.115,0.652,-0.634,49.867
'0:02.871',-37.084,1230.522,-17.73,12.34,1.07,2.703,-2.931,8.827,2.506,-2.981,8.717,-0.117,0.652,-0.601,49.87
'0:02.875',-38.689,1229.935,-17.839,12.255,1.103,2.715,-2.93,8.9,2.515,-2.999,8.795,-0.124,0.659,-0.618,49.874
'0:02.879',-37.358,1229.151,-17.852,11.681,1.05,2.764,-2.966,8.912,2.601,-3.009,8.826,-0.099,0.659,-0.605,49.878
'0:02.883',-34.93,1228.272,-17.783,11.351,1.21,2.838,-2.944,8.913,2.621,-2.991,8.797,-0.115,0.651,-0.637,49.882
'0:02.887',-14.137,1227.522,-17.594,10.522,1.644,2.825,-2.933,8.877,2.669,-2.971,8.837,-0.104,0.649,-0.605,49.886
'0:02.891',7.127,1227.072,-17.627,9.543,2.012,2.826,-2.885,8.841,2.727,-2.925,8.76,-0.104,0.649,-0.605,49.89
'0:02.895',22.242,1226.909,-17.621,8.761,2.473,2.876,-2.791,8.807,2.669,-2.904,8.789,-0.101,0.654,-0.668,49.894
'0:02.898',27.921,1226.897,-17.508,8.365,2.627,2.926,-2.72,8.773,2.737,-2.838,8.771,-0.113,0.645,-0.628,49.898
'0:02.902',17.387,1226.926,-17.432,7.762,2.373,3,-2.65,8.775,2.775,-2.752,8.733,-0.113,0.658,-0.614,49.902
'0:02.906',21.146,1227.001,-17.929,7.385,2.233,3.049,-2.615,8.765,2.891,-2.706,8.677,-0.101,0.649,-0.597,49.906
'0:02.910',7.127,1227.184,-17.766,7.357,2.326,3.099,-2.604,8.765,2.949,-2.658,8.737,-0.097,0.643,-0.643,49.909
'0:02.914',20.637,1227.468,-17.809,7.338,2.587,3.074,-2.592,8.765,2.891,-2.637,8.746,-0.097,0.642,-0.628,49.913
'0:02.918',11.2,1227.818,-17.909,7.225,3.008,3.074,-2.58,8.778,2.891,-2.666,8.746,-0.104,0.642,-0.628,49.917
'0:02.922',-12.257,1228.18,-17.693,7.574,2.981,3.062,-2.578,8.826,2.901,-2.627,8.746,-0.09,0.647,-0.676,49.921
'0:02.926',-39.238,1228.493,-17.796,7.63,3.182,3.001,-2.59,8.801,2.842,-2.616,8.794,-0.108,0.638,-0.645,49.925
'0:02.930',-55.685,1228.639,-17.684,7.885,3.65,3.001,-2.601,8.825,2.852,-2.655,8.775,-0.103,0.647,-0.62,49.929
'0:02.934',-46.247,1228.493,-17.303,7.866,3.937,2.927,-2.66,8.786,2.785,-2.644,8.773,-0.113,0.652,-0.634,49.933
'0:02.938',-40.569,1228.039,-17.508,7.837,4.084,2.902,-2.696,8.737,2.737,-2.684,8.714,-0.092,0.651,-0.659,49.937
'0:02.941',-45.425,1227.359,-17.286,7.536,4.238,2.864,-2.768,8.723,2.747,-2.772,8.674,-0.092,0.651,-0.659,49.941
'0:02.945',-69.155,1226.53,-16.885,7.781,4.699,2.851,-2.829,8.685,2.661,-2.829,8.672,-0.108,0.647,-0.653,49.945
'0:02.949',-85.054,1225.584,-17.005,7.932,5.221,2.814,-2.865,8.648,2.699,-2.84,8.595,-0.08,0.645,-0.624,49.949
'0:02.953',-93.669,1224.567,-16.749,7.649,5.608,2.802,-2.913,8.599,2.661,-2.957,8.544,-0.094,0.636,-0.678,49.952
'0:02.957',-120.65,1223.571,-16.637,7.734,5.802,2.74,-2.948,8.585,2.633,-2.977,8.505,-0.103,0.638,-0.643,49.956
'0:02.961',-108.785,1222.683,-16.683,7.781,6.371,2.679,-2.947,8.572,2.537,-2.976,8.483,-0.101,0.647,-0.647,49.96
'0:02.965',-102.323,1221.987,-16.468,7.951,6.671,2.642,-2.922,8.584,2.518,-2.947,8.464,-0.092,0.64,-0.628,49.964
'0:02.969',-103.655,1221.575,-16.263,8.233,6.818,2.618,-2.921,8.608,2.46,-3.003,8.531,-0.092,0.64,-0.628,49.968
'0:02.973',-110.39,1221.487,-15.994,8.459,6.645,2.654,-2.933,8.644,2.497,-2.963,8.62,-0.085,0.649,-0.666,49.972
'0:02.977',-118.496,1221.667,-16.107,8.77,6.778,2.703,-2.922,8.657,2.574,-2.964,8.631,-0.101,0.64,-0.632,49.976
'0:02.980',-122.255,1222.033,-16.1,8.911,6.945,2.74,-2.935,8.634,2.555,-2.935,8.611,-0.082,0.638,-0.655,49.98
'0:02.984',-117.4,1222.517,-16.011,9.09,7.233,2.789,-2.936,8.646,2.574,-2.973,8.64,-0.089,0.631,-0.651,49.984
'0:02.988',-120.65,1223.092,-15.759,9.646,7.42,2.788,-2.984,8.67,2.622,-2.965,8.592,-0.096,0.635,-0.639,49.988
'0:02.992',-127.385,1223.671,-15.746,10.475,7.748,2.813,-2.996,8.682,2.661,-3.062,8.641,-0.096,0.635,-0.639,49.992
'0:02.996',-117.948,1224.138,-15.299,11.05,7.962,2.812,-3.08,8.668,2.631,-3.1,8.66,-0.104,0.64,-0.653,49.995
'0:03.000',-121.198,1224.375,-15.117,10.908,7.948,2.799,-3.104,8.692,2.632,-3.111,8.621,-0.083,0.64,-0.641,49.999
'0:03.004',-116.068,1224.392,-15.074,10.833,7.982,2.775,-3.127,8.679,2.613,-3.12,8.63,-0.097,0.633,-0.674,50.003
'0:03.008',-105.025,1224.305,-14.905,10.673,8.563,2.64,-3.101,8.653,2.497,-3.196,8.588,-0.073,0.64,-0.641,50.007
'0:03.012',-112.544,1224.196,-14.795,10.409,9.085,2.53,-3.075,8.628,2.411,-3.137,8.568,-0.082,0.635,-0.689,50.011
'0:03.016',-101.775,1224.08,-14.613,9.26,9.131,2.457,-3.025,8.628,2.372,-3.097,8.587,-0.092,0.633,-0.639,50.015
'0:03.020',-103.107,1223.963,-14.193,8.591,8.704,2.445,-2.988,8.641,2.325,-3.039,8.548,-0.092,0.633,-0.639,50.019
'0:03.023',-82.9,1223.85,-14.378,8.007,7.881,2.471,-2.941,8.617,2.325,-3.039,8.538,-0.087,0.636,-0.664,50.023
'0:03.027',-89.362,1223.734,-14.428,7.432,7.634,2.508,-2.906,8.595,2.402,-2.944,8.501,-0.073,0.631,-0.659,50.027
'0:03.031',-50.281,1223.625,-14.428,7.376,7.614,2.556,-2.92,8.595,2.421,-2.944,8.521,-0.083,0.633,-0.678,50.031
'0:03.035',52.708,1223.521,-14.279,7.216,7.413,2.606,-2.908,8.644,2.421,-2.962,8.579,-0.083,0.627,-0.651,50.034
'0:03.039',190.745,1223.392,-14.322,7.593,7.353,2.642,-2.933,8.656,2.449,-2.923,8.629,-0.073,0.635,-0.714,50.038
'0:03.043',307.479,1223.204,-14.265,8.535,7.768,2.667,-2.922,8.633,2.469,-2.963,8.59,-0.073,0.635,-0.714,50.042
'0:03.047',295.614,1222.95,-14.597,9.166,7.948,2.691,-2.946,8.633,2.488,-2.983,8.551,-0.082,0.622,-0.685,50.046
'0:03.051',128.991,1222.625,-14.706,9.656,8.282,2.678,-2.993,8.68,2.459,-3.041,8.579,-0.078,0.636,-0.653,50.05
'0:03.055',-151.899,1222.246,-14.719,10.805,8.523,2.665,-3.064,8.715,2.458,-3.096,8.716,-0.085,0.629,-0.662,50.054
'0:03.059',-368.411,1221.787,-14.713,11.474,8.704,2.616,-3.099,8.714,2.43,-3.146,8.636,-0.068,0.633,-0.695,50.058
'0:03.063',-638.806,1221.221,-14.577,11.992,9.305,2.517,-3.145,8.723,2.42,-3.165,8.636,-0.08,0.627,-0.687,50.062
'0:03.066',-827.789,1220.571,-14.872,12.416,9.659,2.419,-3.178,8.746,2.352,-3.173,8.674,-0.057,0.631,-0.662,50.066
'0:03.070',-879.009,1219.895,-14.58,12.717,10.221,2.321,-3.199,8.768,2.294,-3.21,8.692,-0.057,0.631,-0.662,50.07
'0:03.074',-834.25,1219.258,-14.669,12.783,10.462,2.235,-3.21,8.742,2.15,-3.228,8.66,-0.073,0.612,-0.71,50.074
'0:03.078',-685.171,1218.733,-14.229,12.755,10.261,2.173,-3.232,8.753,2.025,-3.245,8.658,-0.082,0.626,-0.666,50.077
'0:03.082',-563.307,1218.42,-14.093,12.227,10,2.21,-3.221,8.754,2.064,-3.217,8.649,-0.082,0.631,-0.676,50.081
'0:03.086',-421.511,1218.42,-13.934,11.86,9.559,2.247,-3.246,8.73,2.14,-3.305,8.689,-0.061,0.626,-0.668,50.085
'0:03.090',-272.706,1218.808,-13.749,11.577,9.218,2.308,-3.261,8.694,2.188,-3.267,8.7,-0.068,0.626,-0.699,50.089
'0:03.094',-189.14,1219.583,-13.706,11.031,8.984,2.319,-3.309,8.681,2.189,-3.307,8.602,-0.068,0.626,-0.699,50.093
'0:03.098',-159.183,1220.683,-13.696,10.852,9.125,2.356,-3.322,8.694,2.198,-3.375,8.64,-0.068,0.62,-0.674,50.097
'0:03.102',-144.89,1221.954,-13.706,10.833,9.018,2.332,-3.31,8.669,2.18,-3.375,8.591,-0.061,0.629,-0.726,50.101
'0:03.105',-121.981,1223.171,-13.388,11.191,9.064,2.307,-3.322,8.633,2.189,-3.386,8.562,-0.066,0.619,-0.693,50.105
'0:03.109',-110.116,1224.113,-13.384,10.918,9.272,2.283,-3.286,8.597,2.17,-3.357,8.552,-0.054,0.629,-0.674,50.109
'0:03.113',-107.962,1224.646,-13.288,10.607,8.937,2.234,-3.273,8.584,2.123,-3.357,8.493,-0.069,0.622,-0.676,50.113
'0:03.117',-107.179,1224.734,-13.023,10.343,8.81,2.222,-3.261,8.572,2.074,-3.344,8.59,-0.059,0.636,-0.708,50.117
'0:03.121',-123.626,1224.413,-12.98,10.475,8.55,2.173,-3.26,8.559,2.075,-3.307,8.522,-0.059,0.636,-0.708,50.12
'0:03.125',-104.203,1223.767,-12.894,9.966,8.416,2.149,-3.247,8.583,2.065,-3.307,8.483,-0.066,0.626,-0.689,50.124
'0:03.129',-96.919,1222.917,-12.48,9.872,8.363,2.124,-3.258,8.607,2.065,-3.298,8.492,-0.04,0.631,-0.68,50.128
'0:03.133',-79.415,1221.987,-12.374,10.381,8.356,2.112,-3.222,8.608,1.94,-3.275,8.539,-0.055,0.613,-0.705,50.132
'0:03.137',-89.636,1221.125,-11.785,10.381,7.941,2.125,-3.186,8.584,1.949,-3.255,8.579,-0.054,0.619,-0.68,50.136
'0:03.141',-86.934,1220.5,-11.51,10.24,7.647,2.161,-3.212,8.56,2.026,-3.287,8.502,-0.068,0.629,-0.701,50.14
'0:03.145',-101.227,1220.229,-11.165,10.183,7.199,2.21,-3.237,8.548,2.065,-3.278,8.483,-0.068,0.629,-0.701,50.144
'0:03.148',-97.468,1220.32,-10.649,10.24,6.945,2.222,-3.286,8.511,2.094,-3.289,8.473,-0.043,0.631,-0.672,50.148
'0:03.152',-81.804,1220.683,-10.552,10.164,6.571,2.21,-3.299,8.462,2.114,-3.32,8.386,-0.057,0.624,-0.718,50.152
'0:03.156',-90.458,1221.112,-10.158,9.957,6.618,2.185,-3.311,8.437,2.114,-3.32,8.405,-0.048,0.617,-0.685,50.156
'0:03.160',-99.895,1221.367,-9.761,9.882,6.317,2.161,-3.274,8.462,2.037,-3.299,8.394,-0.043,0.622,-0.747,50.159
'0:03.164',-98.016,1221.358,-9.628,10.183,6.143,2.112,-3.273,8.461,1.999,-3.308,8.384,-0.052,0.613,-0.697,50.163
'0:03.168',-82.9,1221.171,-9.118,10.296,5.488,2.124,-3.249,8.426,2.008,-3.318,8.403,-0.048,0.622,-0.678,50.167
'0:03.172',-69.704,1220.912,-8.535,10.164,4.8,2.198,-3.287,8.414,2.037,-3.329,8.374,-0.048,0.622,-0.678,50.171
'0:03.176',-75.068,1220.641,-8.396,9.853,3.957,2.246,-3.336,8.438,2.085,-3.368,8.394,-0.047,0.624,-0.676,50.175
'0:03.180',-79.924,1220.37,-7.846,9.835,3.63,2.245,-3.408,8.461,2.094,-3.407,8.404,-0.038,0.624,-0.716,50.179
'0:03.184',-78.319,1220.108,-7.485,10.098,3.77,2.257,-3.444,8.436,2.094,-3.455,8.394,-0.05,0.62,-0.689,50.183
'0:03.188',-67.55,1219.825,-7.134,10.042,4.044,2.208,-3.444,8.423,2.104,-3.504,8.394,-0.036,0.619,-0.687,50.187
'0:03.191',-56.742,1219.545,-6.893,9.505,3.817,2.171,-3.455,8.422,2.085,-3.456,8.345,-0.05,0.606,-0.712,50.191
'0:03.195',-59.992,1219.354,-6.561,9.241,3.616,2.171,-3.455,8.422,2.048,-3.487,8.207,-0.05,0.606,-0.712,50.195
'0:03.199',-61.324,1219.287,-5.909,9.1,3.697,2.147,-3.466,8.422,2.066,-3.475,8.335,-0.048,0.612,-0.695,50.199
'0:03.203',-43.819,1219.287,-5.624,8.779,3.483,2.147,-3.466,8.41,2.038,-3.514,8.295,-0.052,0.62,-0.701,50.202
'0:03.207',-51.886,1219.22,-5.369,8.13,3.289,2.146,-3.478,8.434,1.98,-3.523,8.294,-0.04,0.622,-0.718,50.206
'0:03.211',-42.449,1218.987,-5.154,7.48,3.556,2.11,-3.464,8.482,1.95,-3.512,8.352,-0.048,0.617,-0.718,50.21
'0:03.215',-44.093,1218.558,-4.935,6.914,4.051,2.073,-3.439,8.518,1.911,-3.48,8.469,-0.024,0.615,-0.735,50.214
'0:03.219',-43.545,1217.958,-4.319,6.754,4.272,2.024,-3.402,8.506,1.873,-3.46,8.459,-0.038,0.612,-0.749,50.218
'0:03.223',-26.002,1217.228,-4.157,6.255,4.044,2.024,-3.413,8.53,1.882,-3.459,8.507,-0.038,0.612,-0.749,50.222
'0:03.227',-20.637,1216.411,-3.865,5.812,4.078,2.073,-3.486,8.542,1.931,-3.491,8.391,-0.043,0.612,-0.703,50.226
'0:03.230',2.545,1215.536,-3.421,5.718,4.058,2.084,-3.523,8.529,1.921,-3.529,8.439,-0.045,0.613,-0.68,50.23
'0:03.234',17.935,1214.619,-3.107,5.379,4.439,2.096,-3.56,8.504,1.921,-3.578,8.439,-0.029,0.617,-0.68,50.234
'0:03.238',21.694,1213.707,-2.819,5.426,4.786,2.071,-3.595,8.503,1.901,-3.586,8.487,-0.031,0.619,-0.72,50.238
'0:03.242',25.493,1212.823,-2.428,4.757,5.187,2.071,-3.631,8.503,1.921,-3.675,8.399,-0.045,0.613,-0.701,50.242
'0:03.246',44.877,1211.973,-2.203,4.333,5.221,2.058,-3.679,8.526,1.902,-3.773,8.359,-0.045,0.613,-0.701,50.245
'0:03.250',64.026,1211.227,-1.656,4.258,5.334,2.058,-3.691,8.513,1.893,-3.754,8.339,-0.022,0.624,-0.705,50.249
'0:03.254',78.867,1210.777,-1.424,3.74,5.849,2.008,-3.763,8.463,1.883,-3.764,8.32,-0.036,0.604,-0.722,50.253
'0:03.258',86.151,1210.848,-0.898,2.967,5.99,1.984,-3.762,8.487,1.873,-3.773,8.329,-0.036,0.613,-0.678,50.257
'0:03.262',107.962,1211.565,-0.719,2.129,6.076,1.984,-3.761,8.523,1.864,-3.782,8.339,-0.047,0.62,-0.705,50.261
'0:03.266',109.842,1212.932,-0.378,1.884,6.237,1.996,-3.749,8.548,1.854,-3.791,8.387,-0.031,0.622,-0.689,50.265
'0:03.270',126.837,1214.807,-0.086,1.102,6.551,2.021,-3.677,8.562,1.844,-3.771,8.417,-0.04,0.612,-0.718,50.269
'0:03.273',140.856,1216.924,0.046,0.499,6.33,2.059,-3.654,8.563,1.902,-3.714,8.418,-0.04,0.612,-0.718,50.273
'0:03.277',149.471,1218.966,0.835,-0.358,6.437,2.133,-3.584,8.565,1.921,-3.705,8.399,-0.026,0.615,-0.695,50.277
'0:03.281',172.928,1220.725,1.318,-1.432,6.257,2.182,-3.56,8.578,2.007,-3.666,8.488,-0.027,0.612,-0.749,50.281
'0:03.285',189.923,1222.196,1.967,-1.818,6.404,2.256,-3.525,8.604,2.084,-3.628,8.47,-0.036,0.606,-0.701,50.284
'0:03.289',204.49,1223.513,2.275,-2.214,6.665,2.269,-3.49,8.593,2.112,-3.55,8.55,-0.038,0.619,-0.714,50.288
'0:03.293',203.119,1224.73,2.345,-2.656,7.059,2.269,-3.454,8.569,2.112,-3.52,8.579,-0.029,0.613,-0.695,50.292
'0:03.297',199.086,1225.763,2.852,-2.817,7.293,2.22,-3.418,8.545,2.122,-3.512,8.521,-0.029,0.613,-0.722,50.296
'0:03.301',207.74,1226.513,3.15,-3.222,7.126,2.184,-3.37,8.497,2.113,-3.444,8.492,-0.024,0.612,-0.722,50.3
'0:03.305',206.37,1226.938,3.508,-3.825,7.039,2.197,-3.334,8.51,2.046,-3.404,8.481,-0.02,0.612,-0.691,50.304
'0:03.309',217.961,1227.08,3.693,-4.126,6.992,2.16,-3.333,8.473,2.046,-3.406,8.394,-0.022,0.62,-0.751,50.308
'0:03.313',231.158,1227.038,3.981,-4.267,7.052,2.136,-3.321,8.485,1.999,-3.405,8.383,-0.041,0.603,-0.722,50.312
'0:03.316',213.379,1226.98,4.395,-4.286,7.306,2.099,-3.344,8.496,2.007,-3.384,8.491,-0.033,0.619,-0.685,50.316
'0:03.320',195.053,1227.076,4.71,-4.493,6.812,2.123,-3.355,8.557,1.979,-3.374,8.471,-0.041,0.612,-0.699,50.32
'0:03.324',178.606,1227.459,5.26,-4.522,6.277,2.16,-3.343,8.594,1.988,-3.383,8.52,-0.041,0.612,-0.699,50.324
'0:03.328',184.793,1228.122,5.482,-4.484,6.123,2.184,-3.392,8.581,2.084,-3.424,8.501,-0.024,0.622,-0.722,50.327
'0:03.332',147.043,1228.976,5.899,-4.654,5.976,2.221,-3.406,8.545,2.084,-3.454,8.472,-0.04,0.608,-0.722,50.331
'0:03.336',101.501,1229.901,6.068,-4.964,6.27,2.171,-3.429,8.508,2.036,-3.453,8.481,-0.013,0.622,-0.693,50.335
'0:03.340',71.309,1230.781,6.382,-4.993,6.651,2.11,-3.44,8.483,1.998,-3.433,8.49,-0.033,0.615,-0.739,50.339
'0:03.344',37.084,1231.506,6.724,-4.654,7.133,2.012,-3.463,8.457,1.941,-3.501,8.41,-0.04,0.615,-0.687,50.343
'0:03.348',-8.498,1231.993,6.975,-4.399,7.032,1.963,-3.474,8.444,1.835,-3.519,8.37,-0.04,0.622,-0.701,50.347
'0:03.352',-32.228,1232.173,7.25,-4.767,6.758,1.913,-3.497,8.442,1.815,-3.518,8.428,-0.041,0.622,-0.701,50.351
'0:03.355',-30.858,1232.01,7.578,-4.917,6.337,1.889,-3.52,8.466,1.767,-3.576,8.387,-0.031,0.622,-0.689,50.355
'0:03.359',-59.444,1231.56,7.767,-4.898,6.518,1.888,-3.531,8.49,1.777,-3.586,8.378,-0.029,0.617,-0.722,50.359
'0:03.363',-89.362,1230.943,8.168,-4.832,6.711,1.876,-3.531,8.49,1.758,-3.605,8.387,-0.041,0.613,-0.685,50.363
'0:03.367',-117.948,1230.277,8.463,-4.917,6.324,1.876,-3.518,8.526,1.69,-3.594,8.415,-0.026,0.627,-0.754,50.367
'0:03.371',-129.265,1229.664,8.751,-5.454,6.391,1.876,-3.517,8.575,1.699,-3.583,8.494,-0.036,0.613,-0.718,50.37
'0:03.375',-145.986,1229.172,9.045,-5.501,6.29,1.901,-3.457,8.6,1.727,-3.523,8.573,-0.036,0.613,-0.718,50.374
'0:03.379',-140.856,1228.822,9.128,-5.435,6.444,1.914,-3.398,8.577,1.776,-3.476,8.564,-0.031,0.62,-0.685,50.378
'0:03.383',-137.371,1228.568,9.307,-6.085,5.99,1.963,-3.374,8.615,1.795,-3.448,8.506,-0.038,0.62,-0.689,50.382
'0:03.387',-134.669,1228.384,9.681,-6.603,5.528,1.964,-3.362,8.615,1.795,-3.438,8.536,-0.024,0.627,-0.718,50.386
'0:03.391',-146.26,1228.239,9.758,-6.434,5.555,2.001,-3.328,8.58,1.872,-3.389,8.606,-0.036,0.617,-0.701,50.39
'0:03.395',-161.336,1228.118,9.804,-6.283,5.548,2.026,-3.269,8.533,1.882,-3.382,8.498,-0.015,0.62,-0.693,50.394
'0:03.398',-169.991,1227.993,9.953,-6.5,5.334,2.051,-3.27,8.521,1.911,-3.334,8.47,-0.029,0.612,-0.724,50.398
'0:03.402',-151.39,1227.851,10.059,-6.858,5.02,2.063,-3.257,8.57,1.921,-3.295,8.529,-0.029,0.612,-0.724,50.402
'0:03.406',-151.899,1227.697,10.122,-6.453,4.746,2.051,-3.257,8.57,1.911,-3.295,8.519,-0.041,0.622,-0.685,50.406
'0:03.410',-148.688,1227.572,9.675,-6.104,4.8,2.088,-3.21,8.559,1.921,-3.228,8.461,-0.041,0.622,-0.701,50.409
'0:03.414',-145.986,1227.468,9.97,-5.812,4.713,2.1,-3.234,8.559,1.949,-3.237,8.51,-0.026,0.629,-0.685,50.413
'0:03.418',-151.899,1227.33,9.777,-5.812,4.298,2.124,-3.234,8.62,1.988,-3.217,8.57,-0.033,0.62,-0.708,50.417
'0:03.422',-147.866,1227.13,9.92,-5.256,3.937,2.173,-3.257,8.692,2.026,-3.256,8.619,-0.034,0.624,-0.68,50.421
'0:03.426',-149.745,1226.893,9.781,-4.55,3.957,2.185,-3.257,8.729,2.054,-3.256,8.629,-0.034,0.624,-0.68,50.425
'0:03.430',-149.51,1226.651,9.82,-4.211,4.064,2.234,-3.246,8.766,2.083,-3.305,8.61,-0.022,0.633,-0.739,50.429
'0:03.434',-147.592,1226.397,9.579,-4.296,3.757,2.234,-3.281,8.777,2.093,-3.286,8.639,-0.041,0.617,-0.703,50.433
'0:03.438',-135.726,1226.105,9.632,-3.966,3.911,2.185,-3.255,8.814,2.063,-3.332,8.697,-0.033,0.629,-0.672,50.437
'0:03.441',-129.813,1225.763,9.956,-3.721,4.111,2.161,-3.267,8.801,2.044,-3.274,8.707,-0.041,0.624,-0.672,50.441
'0:03.445',-147.082,1225.434,9.767,-4.051,4.198,2.149,-3.243,8.801,2.034,-3.254,8.707,-0.024,0.631,-0.708,50.445
'0:03.449',-148.14,1225.246,9.652,-4.38,3.824,2.124,-3.206,8.802,1.987,-3.273,8.667,-0.031,0.626,-0.691,50.449
'0:03.453',-163.529,1225.321,9.536,-4.851,3.382,2.124,-3.207,8.753,2.006,-3.253,8.716,-0.031,0.626,-0.691,50.452
'0:03.457',-136.274,1225.688,9.466,-5.002,2.955,2.137,-3.195,8.766,1.996,-3.254,8.677,-0.017,0.631,-0.678,50.456
'0:03.461',-145.438,1226.305,9.261,-5.096,2.534,2.149,-3.219,8.765,1.997,-3.284,8.628,-0.033,0.619,-0.71,50.46
'0:03.465',-145.438,1227.059,8.774,-5.049,2.46,2.137,-3.219,8.753,2.016,-3.255,8.668,-0.041,0.624,-0.68,50.464
'0:03.469',-131.693,1227.83,8.529,-4.842,2.814,2.063,-3.217,8.764,1.977,-3.293,8.647,-0.045,0.629,-0.689,50.468
'0:03.473',-133.063,1228.539,8.4,-4.324,2.661,2.026,-3.217,8.764,1.9,-3.243,8.646,-0.027,0.627,-0.676,50.472
'0:03.477',-136,1229.114,8.32,-4.465,2.092,2.026,-3.24,8.787,1.91,-3.243,8.676,-0.027,0.627,-0.676,50.476
'0:03.480',-141.404,1229.539,8.151,-4.39,1.524,2.05,-3.288,8.835,1.89,-3.29,8.714,-0.033,0.629,-0.703,50.48
'0:03.484',-157.577,1229.843,8.098,-4.258,1.143,2.074,-3.336,8.847,1.928,-3.378,8.743,-0.031,0.631,-0.674,50.484
'0:03.488',-147.317,1230.085,7.691,-4.333,1.304,2.061,-3.361,8.822,1.919,-3.417,8.713,-0.022,0.635,-0.741,50.488
'0:03.492',-151.664,1230.306,7.976,-4.333,1.424,2.012,-3.384,8.809,1.929,-3.446,8.713,-0.04,0.626,-0.685,50.492
'0:03.496',-152.995,1230.56,7.817,-4.644,1.23,1.999,-3.431,8.82,1.861,-3.454,8.751,-0.038,0.633,-0.659,50.495
'0:03.500',-155.149,1230.897,7.966,-4.936,1.029,1.975,-3.419,8.832,1.909,-3.456,8.733,-0.036,0.635,-0.659,50.499
'0:03.504',-154.601,1231.364,7.552,-5.153,0.488,1.951,-3.395,8.784,1.842,-3.454,8.722,-0.036,0.635,-0.659,50.503
'0:03.508',-147.592,1231.956,7.492,-6.038,0.147,1.939,-3.359,8.748,1.823,-3.465,8.663,-0.029,0.636,-0.697,50.507
'0:03.512',-153.27,1232.623,7.409,-6.575,-0.027,1.902,-3.346,8.76,1.794,-3.444,8.711,-0.041,0.629,-0.687,50.511
'0:03.516',-153.27,1233.294,7.671,-6.839,-0.307,1.878,-3.381,8.783,1.755,-3.414,8.72,-0.01,0.64,-0.678,50.515
'0:03.520',-152.447,1233.894,7.767,-6.971,-0.722,1.866,-3.345,8.759,1.736,-3.433,8.72,-0.04,0.622,-0.701,50.519
'0:03.523',-152.173,1234.394,7.863,-7.376,-1.364,1.915,-3.359,8.723,1.784,-3.434,8.711,-0.036,0.633,-0.672,50.523
'0:03.527',-147.082,1234.74,7.906,-7.932,-2.186,1.951,-3.36,8.736,1.842,-3.426,8.673,-0.036,0.633,-0.672,50.527
'0:03.531',-139.251,1234.815,8.141,-8.045,-2.554,1.939,-3.384,8.723,1.813,-3.435,8.682,-0.05,0.642,-0.691,50.531
'0:03.535',-138.428,1234.556,8.221,-8.271,-2.921,1.951,-3.372,8.711,1.823,-3.397,8.653,-0.033,0.638,-0.655,50.534
'0:03.539',-150.019,1234.044,8.254,-8.676,-3.269,1.952,-3.337,8.664,1.872,-3.399,8.596,-0.047,0.629,-0.695,50.538
'0:03.543',-163.255,1233.431,8.304,-8.893,-3.884,1.94,-3.324,8.688,1.853,-3.379,8.605,-0.029,0.636,-0.664,50.542
'0:03.547',-160.827,1232.831,8.956,-9.053,-4.726,1.977,-3.3,8.737,1.862,-3.39,8.566,-0.034,0.642,-0.731,50.546
'0:03.551',-172.693,1232.314,8.939,-8.93,-5.248,1.965,-3.288,8.713,1.862,-3.368,8.674,-0.041,0.629,-0.68,50.55
'0:03.555',-171.87,1231.918,9.277,-8.619,-5.548,1.952,-3.312,8.7,1.852,-3.339,8.674,-0.041,0.629,-0.68,50.554
'0:03.559',-165.409,1231.673,9.705,-8.836,-6.431,1.976,-3.325,8.676,1.843,-3.35,8.615,-0.043,0.64,-0.664,50.558
'0:03.563',-161.611,1231.61,9.797,-9.072,-7.012,1.989,-3.29,8.677,1.891,-3.351,8.596,-0.038,0.643,-0.647,50.562
'0:03.566',-144.38,1231.743,10.357,-9.335,-7.754,2.001,-3.267,8.617,1.881,-3.302,8.596,-0.038,0.643,-0.695,50.566
'0:03.570',-157.577,1232.056,10.639,-9.326,-8.209,1.99,-3.243,8.581,1.853,-3.351,8.547,-0.048,0.635,-0.67,50.57
'0:03.574',-155.697,1232.464,10.913,-9.307,-8.75,1.99,-3.195,8.57,1.854,-3.265,8.479,-0.033,0.645,-0.678,50.574
'0:03.578',-162.707,1232.906,11.493,-9.392,-9.359,1.99,-3.184,8.546,1.873,-3.247,8.421,-0.033,0.645,-0.678,50.577
'0:03.582',-158.399,1233.394,11.685,-9.09,-10.101,2.039,-3.173,8.547,1.902,-3.218,8.451,-0.05,0.629,-0.689,50.581
'0:03.586',-159.183,1233.936,12.202,-8.968,-10.909,2.076,-3.186,8.535,1.941,-3.209,8.452,-0.045,0.64,-0.655,50.585
'0:03.590',-158.674,1234.565,12.546,-8.921,-11.885,2.137,-3.211,8.547,1.959,-3.218,8.481,-0.057,0.647,-0.68,50.589
'0:03.594',-141.678,1235.369,13.209,-8.808,-12.287,2.174,-3.212,8.56,1.978,-3.228,8.511,-0.04,0.645,-0.676,50.593
'0:03.598',-146.808,1236.415,13.914,-8.412,-12.962,2.173,-3.236,8.572,2.046,-3.277,8.521,-0.055,0.636,-0.685,50.597
'0:03.602',-154.875,1237.603,14.434,-8.45,-12.942,2.137,-3.223,8.547,2.046,-3.287,8.502,-0.033,0.643,-0.649,50.601
'0:03.605',-155.423,1238.691,15.16,-8.13,-13.403,2.1,-3.199,8.511,1.978,-3.257,8.53,-0.033,0.643,-0.649,50.605
'0:03.609',-158.399,1239.449,15.815,-8.657,-13.911,2.101,-3.175,8.511,1.932,-3.201,8.335,-0.045,0.642,-0.71,50.609
'0:03.613',-144.38,1239.762,16.488,-9.222,-14.238,2.076,-3.151,8.487,1.931,-3.191,8.384,-0.057,0.64,-0.664,50.613
'0:03.617',-147.592,1239.678,17.197,-9.721,-14.92,2.113,-3.128,8.476,1.969,-3.161,8.453,-0.059,0.651,-0.668,50.617
'0:03.621',-152.173,1239.341,18.409,-10.908,-16.204,2.102,-3.081,8.428,2.017,-3.161,8.483,-0.045,0.645,-0.634,50.62
'0:03.625',-136.274,1238.832,19.22,-11.304,-16.485,2.138,-3.094,8.404,1.999,-3.152,8.414,-0.05,0.642,-0.674,50.624
'0:03.629',-142.736,1238.14,19.568,-11.935,-16.973,2.139,-3.07,8.405,2.018,-3.125,8.347,-0.05,0.642,-0.674,50.628
'0:03.633',-145.438,1237.207,20.148,-11.935,-16.986,2.164,-3.022,8.406,2.009,-3.095,8.356,-0.064,0.643,-0.641,50.632
'0:03.637',-146.534,1236.061,20.823,-12.51,-17.634,2.189,-2.974,8.431,2.076,-3.057,8.397,-0.047,0.651,-0.689,50.636
'0:03.641',-149.236,1234.84,21.37,-12.293,-17.554,2.238,-2.975,8.481,2.085,-3.065,8.475,-0.069,0.636,-0.664,50.64
'0:03.645',-134.669,1233.748,21.897,-12.02,-17.969,2.299,-2.963,8.53,2.133,-3.047,8.427,-0.064,0.649,-0.643,50.644
'0:03.648',-143.284,1232.881,22.407,-11.888,-17.808,2.348,-2.964,8.531,2.133,-3.018,8.447,-0.061,0.652,-0.641,50.648
'0:03.652',-146.534,1232.239,22.758,-11.86,-17.815,2.372,-2.977,8.507,2.22,-3.049,8.429,-0.064,0.654,-0.666,50.652
'0:03.656',-161.336,1231.827,23.447,-12.246,-17.574,2.421,-3.003,8.483,2.287,-3.011,8.459,-0.064,0.654,-0.666,50.656
'0:03.660',-146.534,1231.685,23.874,-12.303,-17.828,2.47,-2.979,8.52,2.287,-3.02,8.469,-0.076,0.654,-0.659,50.659
'0:03.664',-133.847,1231.823,23.996,-12.482,-17.287,2.458,-2.955,8.496,2.278,-3.04,8.42,-0.052,0.649,-0.647,50.663
'0:03.668',-128.717,1232.164,24.116,-12.566,-16.906,2.422,-2.907,8.484,2.288,-2.964,8.382,-0.073,0.649,-0.672,50.667
'0:03.672',-116.616,1232.539,24.202,-12.613,-16.538,2.398,-2.857,8.533,2.297,-2.963,8.44,-0.09,0.661,-0.609,50.671
'0:03.676',-113.366,1232.764,24.702,-12.905,-16.464,2.423,-2.808,8.619,2.305,-2.89,8.675,-0.073,0.658,-0.657,50.675
'0:03.680',-111.761,1232.735,24.801,-12.604,-16.037,2.448,-2.748,8.645,2.296,-2.854,8.529,-0.073,0.658,-0.657,50.679
'0:03.684',-113.64,1232.514,25.126,-13.028,-16.07,2.485,-2.724,8.694,2.353,-2.844,8.618,-0.089,0.654,-0.639,50.683
'0:03.688',-111.212,1232.206,25.447,-13.668,-16.13,2.595,-2.725,8.756,2.382,-2.815,8.638,-0.082,0.652,-0.647,50.687
'0:03.691',-102.597,1231.843,25.54,-13.998,-15.803,2.669,-2.679,8.77,2.459,-2.757,8.66,-0.08,0.663,-0.601,50.691
'0:03.695',-68.333,1231.418,25.411,-14.516,-15.134,2.694,-2.619,8.759,2.526,-2.699,8.71,-0.097,0.658,-0.632,50.695
'0:03.699',-48.949,1230.964,25.265,-15.11,-14.412,2.696,-2.499,8.762,2.507,-2.573,8.681,-0.075,0.663,-0.641,50.699
'0:03.703',-31.954,1230.535,25,-15.411,-13.73,2.746,-2.403,8.813,2.526,-2.486,8.712,-0.096,0.656,-0.622,50.702
'0:03.707',-28.704,1230.076,24.967,-15.279,-13.978,2.771,-2.342,8.899,2.544,-2.436,8.781,-0.096,0.656,-0.622,50.706
'0:03.711',-21.968,1229.451,24.569,-14.95,-13.403,2.832,-2.307,8.924,2.641,-2.399,8.793,-0.069,0.67,-0.622,50.71
'0:03.715',-20.363,1228.61,24.526,-14.507,-12.875,2.869,-2.332,8.888,2.65,-2.399,8.783,-0.087,0.654,-0.632,50.714
'0:03.719',-15.233,1227.701,24.248,-14.262,-12.213,2.905,-2.358,8.852,2.66,-2.42,8.734,-0.092,0.666,-0.607,50.718
'0:03.723',-28.978,1226.959,23.934,-14.535,-11.738,2.917,-2.382,8.84,2.737,-2.42,8.784,-0.104,0.666,-0.616,50.722
'0:03.727',-42.175,1226.505,23.245,-14.45,-10.869,2.93,-2.358,8.876,2.727,-2.43,8.764,-0.089,0.666,-0.595,50.726
'0:03.730',-53.766,1226.347,22.801,-13.979,-10.241,2.893,-2.321,8.901,2.776,-2.373,8.766,-0.089,0.666,-0.63,50.73
'0:03.734',-69.429,1226.459,21.986,-13.16,-9.332,2.832,-2.355,8.923,2.747,-2.352,8.775,-0.103,0.663,-0.63,50.734
'0:03.738',-78.593,1226.855,21.658,-12.51,-8.61,2.844,-2.39,8.984,2.688,-2.379,8.881,-0.085,0.665,-0.595,50.738
'0:03.742',-91.006,1227.559,21.423,-11.681,-8.189,2.831,-2.425,9.019,2.649,-2.387,8.929,-0.092,0.67,-0.651,50.742
'0:03.746',-89.91,1228.564,20.565,-11.069,-7.861,2.83,-2.485,9.054,2.639,-2.521,8.987,-0.103,0.661,-0.607,50.745
'0:03.750',-103.929,1229.71,20.055,-11.021,-7.173,2.756,-2.543,9.064,2.62,-2.559,9.006,-0.101,0.668,-0.599,50.749
'0:03.754',-118.77,1230.685,19.343,-11.087,-6.103,2.707,-2.517,9.112,2.581,-2.558,9.044,-0.101,0.67,-0.574,50.753
'0:03.758',-125.232,1231.11,18.697,-11.003,-5.201,2.658,-2.527,9.136,2.504,-2.547,9.052,-0.101,0.67,-0.574,50.757
'0:03.762',-136.274,1230.747,18.194,-11.003,-4.639,2.634,-2.477,9.197,2.514,-2.528,9.024,-0.096,0.681,-0.611,50.761
'0:03.766',-137.097,1229.61,17.667,-11.003,-4.506,2.683,-2.466,9.246,2.523,-2.517,9.122,-0.101,0.666,-0.591,50.765
'0:03.770',-153.27,1227.976,16.968,-11.257,-4.278,2.732,-2.466,9.259,2.542,-2.536,9.131,-0.092,0.677,-0.605,50.769
'0:03.773',-136.823,1226.259,16.461,-11.474,-4.773,2.83,-2.48,9.284,2.648,-2.509,9.124,-0.11,0.659,-0.611,50.773
'0:03.777',-126.563,1224.805,15.855,-11.549,-4.606,2.867,-2.446,9.225,2.715,-2.491,9.135,-0.106,0.67,-0.58,50.777
'0:03.781',-134.943,1223.775,14.815,-12.293,-4.298,2.844,-2.351,9.166,2.657,-2.471,9.095,-0.106,0.67,-0.597,50.781
'0:03.785',-134.121,1223.167,13.497,-13.169,-3.316,2.759,-2.241,9.13,2.629,-2.365,9.037,-0.113,0.679,-0.597,50.784
'0:03.789',-120.65,1222.896,11.569,-12.698,-2.413,2.724,-2.072,9.157,2.582,-2.239,8.969,-0.101,0.684,-0.616,50.788
'0:03.793',-123.078,1222.867,10.629,-11.85,-3.102,2.762,-1.987,9.22,2.601,-2.083,9.019,-0.117,0.666,-0.607,50.792
'0:03.797',-126.289,1222.954,9.483,-10.711,-3.944,2.885,-1.941,9.246,2.678,-2.006,9.05,-0.092,0.672,-0.574,50.796
'0:03.801',-115.794,1223.05,8.529,-9.608,-4.693,3.068,-1.957,9.273,2.812,-1.998,9.101,-0.106,0.672,-0.637,50.8
'0:03.805',-131.693,1223.138,7.475,-8.676,-4.733,3.215,-1.996,9.286,3.003,-2.067,9.202,-0.115,0.67,-0.588,50.804
'0:03.809',-120.376,1223.279,6.177,-7.414,-4.993,3.3,-2.082,9.334,3.109,-2.088,9.223,-0.115,0.67,-0.588,50.808
'0:03.813',-109.059,1223.6,5.084,-5.916,-4.285,3.299,-2.153,9.369,3.118,-2.164,9.3,-0.117,0.677,-0.597,50.812
'0:03.816',-111.761,1224.213,4.034,-4.183,-3.463,3.188,-2.187,9.355,3.099,-2.232,9.29,-0.103,0.679,-0.563,50.816
'0:03.820',-113.366,1225.201,3.256,-3.156,-2.928,2.992,-2.207,9.292,2.935,-2.249,9.258,-0.108,0.674,-0.603,50.82
'0:03.824',-112.035,1226.53,2.352,-2.779,-2.868,2.833,-2.18,9.278,2.734,-2.218,9.205,-0.117,0.674,-0.574,50.824
'0:03.828',-104.203,1228.076,1.345,-2.553,-3.162,2.699,-2.177,9.276,2.638,-2.226,9.175,-0.101,0.675,-0.626,50.827
'0:03.832',-110.938,1229.626,0.391,-2.317,-3.349,2.589,-2.139,9.227,2.513,-2.225,9.124,-0.101,0.665,-0.607,50.831
'0:03.836',-111.761,1231.006,-0.444,-2.468,-3.737,2.528,-2.126,9.202,2.446,-2.204,9.152,-0.12,0.665,-0.607,50.835
'0:03.840',-64.848,1232.069,-1.318,-2.185,-3.937,2.504,-2.114,9.177,2.398,-2.166,9.064,-0.099,0.674,-0.57,50.839
'0:03.844',58.622,1232.723,-2.14,-2.025,-4.312,2.54,-2.115,9.166,2.398,-2.167,9.044,-0.124,0.672,-0.58,50.843
'0:03.848',248.701,1232.965,-2.988,-1.959,-5.034,2.577,-2.129,9.142,2.428,-2.159,8.976,-0.103,0.679,-0.593,50.847
'0:03.852',384.584,1232.831,-4.19,-1.356,-4.82,2.626,-2.142,9.106,2.467,-2.238,8.927,-0.125,0.672,-0.607,50.851
'0:03.855',430.126,1232.335,-5.081,-0.33,-4.733,2.638,-2.179,9.069,2.476,-2.199,8.957,-0.097,0.677,-0.588,50.855
'0:03.859',230.923,1231.502,-5.892,0.744,-4.405,2.662,-2.216,9.057,2.476,-2.277,8.927,-0.097,0.677,-0.588,50.859
'0:03.863',-88.03,1230.389,-6.661,1.592,-4.626,2.698,-2.216,9.106,2.515,-2.288,8.899,-0.113,0.67,-0.622,50.863
'0:03.867',-365.435,1229.105,-7.555,2.798,-4.746,2.723,-2.252,9.13,2.543,-2.297,8.958,-0.12,0.668,-0.578,50.867
'0:03.871',-717.516,1227.847,-8.307,3.966,-4.646,2.747,-2.289,9.129,2.562,-2.383,9.025,-0.118,0.677,-0.599,50.87
'0:03.875',-994.921,1226.901,-8.731,4.851,-4.432,2.721,-2.361,9.116,2.581,-2.402,9.075,-0.11,0.67,-0.578,50.874
'0:03.879',-1032.397,1226.538,-9.271,5.238,-4.365,2.709,-2.372,9.115,2.552,-2.412,9.025,-0.099,0.663,-0.605,50.878
'0:03.883',-922.946,1226.901,-9.993,5.756,-4.285,2.66,-2.408,9.078,2.533,-2.442,8.995,-0.12,0.665,-0.572,50.882
'0:03.887',-760.67,1227.93,-10.668,5.812,-3.904,2.648,-2.372,9.066,2.534,-2.394,8.957,-0.12,0.665,-0.572,50.886
'0:03.891',-587.312,1229.356,-11.102,6.132,-3.797,2.648,-2.312,9.079,2.524,-2.385,8.927,-0.106,0.672,-0.637,50.89
'0:03.895',-398.329,1230.789,-11.659,6.575,-3.944,2.673,-2.277,9.032,2.496,-2.336,8.908,-0.117,0.659,-0.614,50.894
'0:03.898',-230.923,1231.843,-12.033,6.49,-4.693,2.759,-2.244,8.985,2.582,-2.319,8.88,-0.113,0.67,-0.58,50.898
'0:03.902',-142.736,1232.264,-12.411,6.189,-5.047,2.821,-2.222,8.95,2.65,-2.301,8.842,-0.12,0.665,-0.58,50.902
'0:03.906',-116.851,1232.031,-13.133,6.104,-4.993,2.883,-2.188,8.915,2.718,-2.274,8.805,-0.106,0.674,-0.609,50.906
'0:03.910',-119.828,1231.36,-13.457,6.283,-4.88,2.932,-2.189,8.916,2.718,-2.254,8.814,-0.106,0.674,-0.609,50.909
'0:03.914',-99.073,1230.647,-13.722,7.122,-5.1,3.006,-2.155,8.893,2.785,-2.246,8.777,-0.12,0.668,-0.601,50.913
'0:03.918',-51.886,1230.285,-14.053,7.47,-5.161,3.042,-2.156,8.906,2.823,-2.226,8.826,-0.096,0.67,-0.597,50.917
'0:03.922',-45.973,1230.472,-14.679,7.668,-5.167,3.041,-2.239,8.977,2.842,-2.255,8.846,-0.115,0.661,-0.626,50.921
'0:03.926',-34.108,1231.143,-14.888,8.195,-4.973,3.042,-2.156,8.906,2.774,-2.34,8.912,-0.118,0.663,-0.584,50.925
'0:03.930',-21.694,1232.023,-14.891,9.91,-3.215,2.745,-2.4,8.982,2.65,-2.368,8.9,-0.118,0.67,-0.597,50.929
'0:03.934',-4.464,1232.727,-14.471,10.532,-1.631,2.66,-2.402,8.763,2.555,-2.428,8.723,-0.103,0.665,-0.586,50.933
'0:03.938',-4.19,1232.881,-14.209,9.684,-2.56,2.856,-2.409,8.645,2.603,-2.41,8.665,-0.103,0.665,-0.586,50.937
'0:03.941',5.521,1232.277,-14.444,7.894,-5.288,3.236,-2.405,8.662,2.95,-2.428,8.553,-0.11,0.659,-0.62,50.941
'0:03.945',16.839,1230.922,-14.795,7.244,-7.928,3.504,-2.458,8.713,3.258,-2.481,8.578,-0.115,0.656,-0.588,50.945
'0:03.949',-5.796,1229.026,-15.868,7.951,-7.567,3.504,-2.518,8.736,3.286,-2.52,8.636,-0.101,0.656,-0.655,50.949
'0:03.953',10.651,1226.876,-16.408,9.787,-5.141,3.332,-2.513,8.795,3.18,-2.565,8.722,-0.11,0.656,-0.616,50.952
'0:03.957',26.55,1224.738,-15.587,10.918,-2.493,3.112,-2.482,8.901,3.083,-2.552,8.76,-0.108,0.665,-0.586,50.956
'0:03.961',21.694,1222.792,-15.653,10.814,-2.373,2.941,-2.429,8.972,2.852,-2.48,8.825,-0.108,0.665,-0.586,50.96
'0:03.965',19.266,1221.116,-15.842,10.164,-2.253,2.795,-2.39,8.947,2.612,-2.408,8.792,-0.104,0.659,-0.591,50.964
'0:03.969',27.372,1219.641,-15.584,9.684,-1.698,2.697,-2.353,8.849,2.622,-2.419,8.724,-0.101,0.666,-0.63,50.968
'0:03.973',39.512,1218.228,-15.233,9.043,-0.508,2.55,-2.4,8.725,2.43,-2.417,8.681,-0.115,0.652,-0.607,50.972
'0:03.977',40.021,1216.77,-14.186,8.666,-0.12,2.476,-2.423,8.687,2.392,-2.417,8.632,-0.089,0.663,-0.601,50.976
'0:03.980',39.512,1215.282,-13.904,8.139,-0.227,2.463,-2.484,8.662,2.306,-2.504,8.561,-0.092,0.649,-0.626,50.98
'0:03.984',38.689,1213.869,-13.812,7.564,-0.541,2.499,-2.606,8.6,2.335,-2.544,8.523,-0.108,0.656,-0.603,50.984
'0:03.988',58.896,1212.644,-13.855,7.065,-0.321,2.571,-2.705,8.539,2.354,-2.672,8.483,-0.108,0.656,-0.603,50.988
'0:03.992',67.55,1211.69,-13.818,7.084,0.174,2.595,-2.79,8.489,2.393,-2.828,8.443,-0.117,0.659,-0.614,50.992
'0:03.996',69.704,1211.073,-13.646,7.385,0.689,2.618,-2.863,8.476,2.441,-2.868,8.444,-0.083,0.649,-0.651,50.995
'0:04.000',73.463,1210.869,-13.408,7.366,1.096,2.68,-2.875,8.549,2.479,-2.907,8.483,-0.089,0.643,-0.68,50.999
'0:04.004',74.011,1211.127,-13.391,7.291,1.05,2.703,-2.922,8.645,2.517,-2.935,8.562,-0.106,0.658,-0.62,51.003
'0:04.008',75.617,1211.886,-13.374,7.178,1.578,2.715,-2.933,8.718,2.555,-2.935,8.591,-0.097,0.654,-0.607,51.007
'0:04.012',81.295,1213.144,-13.427,7.009,2.039,2.678,-2.944,8.729,2.536,-2.954,8.591,-0.097,0.654,-0.607,51.011
'0:04.016',83.174,1214.857,-13.189,6.613,2.701,2.654,-2.907,8.766,2.468,-2.933,8.639,-0.096,0.652,-0.637,51.015
'0:04.020',105.025,1216.92,-12.914,6.311,2.734,2.655,-2.82,8.876,2.525,-2.902,8.796,-0.104,0.649,-0.609,51.019
'0:04.023',122.255,1219.17,-12.818,6.528,2.894,2.668,-2.76,8.914,2.524,-2.861,8.884,-0.092,0.658,-0.632,51.023
'0:04.027',107.688,1221.412,-12.815,6.848,3.449,2.705,-2.725,8.915,2.496,-2.764,8.846,-0.104,0.645,-0.641,51.027
'0:04.031',113.366,1223.467,-12.825,6.566,3.316,2.755,-2.666,8.893,2.553,-2.717,8.837,-0.092,0.647,-0.67,51.031
'0:04.035',114.698,1225.196,-12.576,6.434,3.262,2.828,-2.68,8.893,2.621,-2.689,8.829,-0.08,0.654,-0.609,51.034
'0:04.039',136,1226.488,-12.58,6.368,3.329,2.926,-2.658,8.883,2.756,-2.702,8.763,-0.08,0.654,-0.609,51.038
'0:04.043',138.154,1227.197,-12.613,7.074,3.683,2.976,-2.647,8.884,2.804,-2.713,8.773,-0.096,0.649,-0.639,51.042
'0:04.047',155.423,1227.163,-12.97,7.527,3.516,2.988,-2.624,8.86,2.814,-2.645,8.774,-0.097,0.649,-0.614,51.046
'0:04.051',159.183,1226.317,-13.345,7.885,3.917,3.001,-2.577,8.849,2.814,-2.606,8.755,-0.097,0.658,-0.639,51.05
'0:04.055',176.178,1224.788,-13.633,7.969,4.151,2.927,-2.575,8.86,2.784,-2.624,8.832,-0.09,0.661,-0.603,51.054
'0:04.059',199.086,1222.883,-13.742,8.572,4.532,2.878,-2.573,8.872,2.766,-2.576,8.783,-0.099,0.643,-0.649,51.058
'0:04.063',202.884,1220.958,-13.759,8.808,5.08,2.817,-2.62,8.87,2.727,-2.623,8.792,-0.099,0.643,-0.649,51.062
'0:04.066',204.49,1219.262,-13.928,9.043,4.846,2.828,-2.656,8.906,2.707,-2.671,8.85,-0.094,0.647,-0.616,51.066
'0:04.070',222.268,1217.891,-13.716,8.836,4.599,2.84,-2.752,8.917,2.669,-2.689,8.849,-0.09,0.651,-0.685,51.07
'0:04.074',237.11,1216.828,-13.729,8.977,4.8,2.839,-2.8,8.916,2.64,-2.806,8.819,-0.096,0.642,-0.634,51.074
'0:04.078',245.451,1216.02,-13.921,8.817,4.987,2.827,-2.836,8.891,2.669,-2.874,8.838,-0.09,0.649,-0.614,51.077
'0:04.082',252.186,1215.465,-13.659,8.553,5.528,2.814,-2.896,8.865,2.697,-2.923,8.838,-0.09,0.643,-0.689,51.081
'0:04.086',253.831,1215.195,-13.55,8.092,5.749,2.789,-2.944,8.852,2.621,-2.942,8.807,-0.096,0.638,-0.659,51.085
'0:04.090',268.633,1215.24,-13.616,7.772,5.876,2.752,-2.932,8.827,2.602,-2.961,8.787,-0.096,0.638,-0.659,51.089
'0:04.094',281.321,1215.64,-13.6,7.414,6.404,2.691,-2.968,8.753,2.593,-2.972,8.709,-0.09,0.649,-0.616,51.093
'0:04.098',291.306,1216.42,-13.778,7.027,6.611,2.691,-2.968,8.729,2.563,-2.991,8.747,-0.101,0.645,-0.63,51.097
'0:04.102',300.744,1217.587,-13.928,6.707,6.865,2.641,-2.991,8.728,2.506,-3.01,8.668,-0.08,0.647,-0.662,51.101
'0:04.105',302.623,1219.083,-13.841,6.349,6.945,2.629,-3.027,8.739,2.487,-3,8.687,-0.092,0.636,-0.649,51.105
'0:04.109',299.647,1220.75,-13.861,6.566,7.621,2.604,-3.025,8.775,2.4,-3.018,8.715,-0.069,0.649,-0.645,51.109
'0:04.113',295.614,1222.379,-13.898,6.679,8.015,2.592,-3.013,8.763,2.401,-3.029,8.627,-0.069,0.649,-0.645,51.113
'0:04.117',290.484,1223.713,-13.759,6.377,8.282,2.568,-2.988,8.8,2.41,-3.038,8.666,-0.082,0.633,-0.666,51.117
'0:04.121',300.744,1224.53,-13.775,6.424,8.864,2.531,-3.023,8.81,2.39,-3.046,8.754,-0.097,0.645,-0.63,51.12
'0:04.125',301.527,1224.78,-13.871,6.434,9.252,2.556,-2.975,8.824,2.409,-3.017,8.764,-0.096,0.651,-0.653,51.124
'0:04.129',281.595,1224.663,-13.689,6.208,9.265,2.58,-2.988,8.812,2.428,-3.046,8.793,-0.075,0.649,-0.634,51.128
'0:04.133',278.07,1224.505,-13.702,6.067,8.958,2.616,-3.013,8.812,2.458,-3.028,8.736,-0.082,0.647,-0.666,51.132
'0:04.137',242.514,1224.521,-13.623,6.142,9.466,2.628,-3.05,8.787,2.467,-3.057,8.726,-0.087,0.638,-0.63,51.136
'0:04.141',207.192,1224.746,-13.937,6.18,9.927,2.604,-3.05,8.738,2.468,-3.039,8.667,-0.087,0.638,-0.63,51.14
