'Elapsed time','chest_ecg','wrist_ppg','wrist_gyro_x','wrist_gyro_y','wrist_gyro_z','wrist_low_noise_accelerometer_x','wrist_low_noise_accelerometer_y','wrist_low_noise_accelerometer_z','wrist_wide_range_accelerometer_x','wrist_wide_range_accelerometer_y','wrist_wide_range_accelerometer_z','wrist_mag_x','wrist_mag_y','wrist_mag_z','sample_times_for_all_signals_apart_from_ecg'
'0:00.000',261.645,1631.497,-22.2,-9.123,81.657,2.956,-9.563,1.595,2.846,-9.638,1.504,-0.426,0.22,-0.743,57.999
'0:00.004',429.622,1652.75,-22.641,-7.754,81.355,3.017,-9.577,1.607,2.884,-9.598,1.573,-0.422,0.222,-0.72,58.003
'0:00.008',509.406,1663.731,-22.941,-6.352,80.632,3.077,-9.65,1.607,2.961,-9.658,1.574,-0.398,0.209,-0.764,58.007
'0:00.012',415.282,1633.686,-23.446,-4.356,80.367,3.162,-9.748,1.606,2.98,-9.688,1.525,-0.424,0.215,-0.722,58.011
'0:00.016',126.846,1643.218,-23.956,-2.704,79.925,3.222,-9.881,1.629,3.105,-9.864,1.574,-0.417,0.222,-0.739,58.015
'0:00.020',-115.244,1659.352,-24.191,-1.079,80.029,3.257,-10.05,1.651,3.172,-9.962,1.585,-0.396,0.222,-0.758,58.019
'0:00.023',-410.719,1662.99,-24.585,0.87,79.67,3.328,-10.208,1.661,3.248,-10.088,1.683,-0.396,0.222,-0.758,58.023
'0:00.027',-669.561,1664.472,-24.917,2.508,79.868,3.376,-10.341,1.683,3.267,-10.147,1.673,-0.389,0.201,-0.791,58.027
'0:00.031',-778.742,1682.795,-25.227,4.153,79.681,3.411,-10.461,1.73,3.296,-10.313,1.633,-0.375,0.199,-0.833,58.031
'0:00.035',-763.359,1697.447,-25.497,5.738,79.878,3.41,-10.556,1.777,3.343,-10.516,1.72,-0.361,0.202,-0.835,58.034
'0:00.039',-662.521,1690.845,-25.852,6.931,79.93,3.384,-10.663,1.787,3.324,-10.623,1.709,-0.368,0.202,-0.789,58.038
'0:00.043',-503.214,1653.491,-25.74,7.889,79.852,3.371,-10.795,1.784,3.323,-10.746,1.845,-0.384,0.216,-0.754,58.042
'0:00.047',-349.251,1657.87,-26.301,8.759,79.759,3.32,-10.95,1.781,3.304,-10.825,1.785,-0.384,0.216,-0.754,58.046
'0:00.051',-191.573,1657.87,-26.383,8.873,79.312,3.245,-11.117,1.752,3.217,-11.017,1.811,-0.366,0.209,-0.772,58.05
'0:00.055',-10.625,1659.352,-26.744,8.293,79.478,3.145,-11.284,1.712,3.092,-11.22,1.759,-0.372,0.206,-0.797,58.054
'0:00.059',62.706,1652.009,-26.74,7.579,79.119,3.081,-11.512,1.67,3.063,-11.355,1.738,-0.354,0.195,-0.802,58.058
'0:00.063',117.916,1657.87,-27.213,5.704,78.833,3.018,-11.715,1.654,2.997,-11.609,1.627,-0.352,0.201,-0.779,58.062
'0:00.066',147.314,1647.631,-27.582,4.396,78.578,2.954,-11.919,1.577,2.939,-11.755,1.557,-0.328,0.204,-0.854,58.066
'0:00.070',171.888,1635.909,-28.226,2.394,78.032,2.927,-12.148,1.512,2.901,-12.086,1.475,-0.342,0.19,-0.829,58.07
'0:00.074',200.959,1601.452,-29.057,-0.661,77.309,2.95,-12.353,1.496,2.901,-12.212,1.455,-0.342,0.19,-0.829,58.074
'0:00.078',192.095,1573.631,-29.623,-3.398,76.743,2.923,-12.545,1.516,2.882,-12.368,1.424,-0.326,0.193,-0.793,58.077
'0:00.082',215.561,1561.169,-30.438,-6.21,76.254,2.958,-12.713,1.562,2.871,-12.619,1.519,-0.325,0.202,-0.81,58.081
'0:00.086',228.467,1553.859,-31.411,-9.163,75.884,2.968,-12.869,1.596,2.919,-12.715,1.588,-0.328,0.195,-0.793,58.085
'0:00.090',235.507,1569.96,-32.28,-12.083,75.292,3.004,-12.94,1.68,2.918,-12.908,1.645,-0.307,0.19,-0.806,58.089
'0:00.094',248.152,1550.929,-33.19,-15.11,74.278,3.053,-12.963,1.765,2.966,-12.917,1.704,-0.3,0.188,-0.846,58.093
'0:00.098',254.605,1542.138,-33.711,-17.834,73.154,3.09,-12.914,1.887,3.022,-12.944,1.88,-0.3,0.176,-0.85,58.097
'0:00.102',246.783,1536.277,-34.34,-20.518,72.343,3.115,-12.84,2.01,3.05,-12.816,1.999,-0.298,0.176,-0.85,58.101
'0:00.105',261.384,1519.403,-34.557,-22.898,70.965,3.141,-12.718,2.17,3.107,-12.748,2.079,-0.311,0.181,-0.85,58.105
'0:00.109',267.055,1534.054,-34.528,-24.975,68.963,3.13,-12.546,2.318,3.144,-12.531,2.306,-0.276,0.163,-0.869,58.109
'0:00.113',277.55,1510.612,-34.393,-26.984,67.007,3.146,-12.267,2.468,3.106,-12.432,2.335,-0.297,0.174,-0.833,58.113
'0:00.117',283.742,1549.447,-33.941,-28.764,64.553,3.161,-11.989,2.583,3.153,-12.158,2.494,-0.291,0.176,-0.818,58.117
'0:00.121',277.81,1540.656,-33.443,-30.241,61.781,3.127,-11.686,2.684,3.162,-11.972,2.564,-0.276,0.176,-0.852,58.12
'0:00.125',278.332,1552.377,-32.66,-31.751,58.546,3.095,-11.287,2.764,3.133,-11.515,2.626,-0.276,0.176,-0.852,58.124
'0:00.129',283.742,1591.213,-31.803,-33.315,55.052,3.014,-10.875,2.818,3.046,-10.997,2.726,-0.274,0.165,-0.848,58.128
'0:00.133',291.564,1610.243,-30.788,-34.354,51.437,2.982,-10.441,2.874,3.046,-10.704,2.797,-0.284,0.17,-0.829,58.132
'0:00.137',280.809,1653.491,-28.519,-36.026,42.643,2.913,-10.03,2.905,2.959,-10.176,2.897,-0.27,0.154,-0.848,58.136
'0:00.141',276.767,1726.009,-27.582,-36.673,37.947,2.88,-9.644,2.948,2.941,-9.925,2.831,-0.262,0.158,-0.908,58.14
'0:00.145',278.593,1736.989,-26.392,-37.01,33.355,2.823,-9.306,2.977,2.873,-9.504,2.931,-0.27,0.146,-0.875,58.144
'0:00.148',283.221,1813.919,-25.157,-36.916,28.8,2.814,-8.957,2.983,2.835,-9.067,2.924,-0.265,0.153,-0.848,58.148
'0:00.152',273.769,1823.452,-23.946,-36.397,24.099,2.805,-8.692,3.012,2.844,-8.862,2.974,-0.265,0.153,-0.848,58.152
'0:00.156',278.332,1891.591,-22.466,-35.527,19.819,2.807,-8.45,3.065,2.834,-8.559,3.074,-0.258,0.151,-0.846,58.156
'0:00.160',274.29,1939.183,-21.177,-34.536,15.664,2.785,-8.269,3.104,2.825,-8.463,3.036,-0.255,0.154,-0.889,58.159
'0:00.164',261.906,1980.949,-20.054,-33.106,12.06,2.763,-8.076,3.095,2.786,-8.218,3.105,-0.265,0.144,-0.869,58.163
'0:00.168',267.837,2023.456,-18.583,-31.502,8.508,2.727,-7.943,3.097,2.758,-8.112,3.037,-0.262,0.135,-0.864,58.167
'0:00.172',272.139,2057.138,-17.101,-29.216,5.055,2.679,-7.846,3.11,2.661,-7.915,3.125,-0.267,0.146,-0.846,58.171
'0:00.176',258.972,2084.994,-15.449,-26.478,1.56,2.656,-7.749,3.112,2.613,-7.788,3.116,-0.267,0.146,-0.846,58.175
'0:00.180',256.495,2140.67,-13.904,-23.599,-1.95,2.656,-7.689,3.101,2.604,-7.73,3.106,-0.249,0.142,-0.86,58.179
'0:00.184',246.262,2145.049,-12.207,-20.572,-5.419,2.657,-7.629,3.102,2.623,-7.661,3.146,-0.265,0.142,-0.869,58.183
'0:00.188',251.933,2139.188,-10.439,-17.362,-8.549,2.706,-7.617,3.151,2.642,-7.651,3.156,-0.251,0.144,-0.883,58.187
'0:00.191',269.728,2142.86,-8.797,-14.369,-11.587,2.706,-7.641,3.151,2.7,-7.633,3.167,-0.249,0.131,-0.883,58.191
'0:00.195',270.249,2150.91,-7.161,-11.017,-14.488,2.767,-7.643,3.164,2.767,-7.634,3.159,-0.225,0.144,-0.835,58.195
'0:00.199',269.206,2139.929,-5.506,-8.057,-17.156,2.742,-7.667,3.127,2.757,-7.663,3.187,-0.253,0.126,-0.906,58.199
'0:00.203',262.688,2117.935,-3.712,-4.983,-19.58,2.755,-7.668,3.103,2.69,-7.633,3.138,-0.253,0.126,-0.906,58.202
'0:00.207',269.728,2071.79,-2.035,-2.279,-22.138,2.767,-7.704,3.09,2.7,-7.653,3.147,-0.272,0.142,-0.841,58.206
'0:00.211',269.206,2043.969,-0.479,0.647,-24.385,2.743,-7.668,3.042,2.719,-7.683,3.099,-0.258,0.144,-0.871,58.21
'0:00.215',282.96,1972.158,0.988,3.567,-26.709,2.718,-7.668,3.005,2.71,-7.644,3.079,-0.253,0.137,-0.908,58.214
'0:00.219',296.713,1938.476,2.731,6.237,-28.764,2.669,-7.656,2.981,2.653,-7.635,2.991,-0.272,0.135,-0.869,58.218
'0:00.223',307.99,1879.869,4.126,8.28,-30.875,2.608,-7.667,2.931,2.586,-7.645,2.941,-0.272,0.142,-0.864,58.222
'0:00.227',317.702,1819.039,6.051,10.033,-32.898,2.522,-7.714,2.905,2.528,-7.683,2.93,-0.272,0.139,-0.912,58.226
'0:00.230',348.99,1749.452,7.659,11.112,-34.999,2.448,-7.773,2.854,2.442,-7.799,2.878,-0.262,0.139,-0.912,58.23
'0:00.234',359.485,1699.636,9.202,12.09,-37.006,2.361,-7.856,2.803,2.385,-7.828,2.828,-0.281,0.142,-0.839,58.234
'0:00.238',388.622,1588.283,10.856,12.359,-39.112,2.311,-7.964,2.788,2.279,-7.924,2.806,-0.272,0.149,-0.835,58.238
'0:00.242',402.115,1559.72,12.555,12.939,-40.917,2.224,-8.071,2.749,2.192,-8.068,2.804,-0.279,0.14,-0.862,58.242
'0:00.246',429.883,1456.417,14.358,13.195,-42.919,2.137,-8.177,2.71,2.183,-8.137,2.754,-0.272,0.151,-0.877,58.245
'0:00.250',445.201,1391.208,15.911,12.811,-44.848,2.062,-8.284,2.682,2.097,-8.263,2.683,-0.288,0.146,-0.856,58.249
'0:00.254',454.131,1339.944,17.534,12.022,-46.351,1.987,-8.44,2.642,2.001,-8.319,2.701,-0.288,0.146,-0.856,58.253
'0:00.258',465.994,1261.532,19.083,11.186,-47.937,1.888,-8.545,2.651,1.876,-8.464,2.658,-0.27,0.149,-0.864,58.257
'0:00.262',480.008,1194.875,20.641,9.635,-49.352,1.764,-8.675,2.623,1.847,-8.57,2.637,-0.29,0.137,-0.864,58.261
'0:00.266',477.857,1145.059,21.998,7.727,-50.47,1.653,-8.769,2.607,1.636,-8.733,2.554,-0.29,0.146,-0.839,58.265
'0:00.270',493.501,1086.452,23.241,5.246,-51.703,1.554,-8.851,2.592,1.502,-8.859,2.473,-0.291,0.158,-0.841,58.269
'0:00.273',499.694,1009.522,24.636,2.893,-52.956,1.443,-8.909,2.578,1.434,-8.886,2.53,-0.305,0.154,-0.812,58.273
'0:00.277',509.145,978.77,25.476,0.196,-53.809,1.344,-8.991,2.575,1.299,-9.001,2.488,-0.307,0.163,-0.833,58.277
'0:00.281',493.501,931.144,26.32,-2.872,-54.76,1.27,-9.05,2.561,1.28,-9.03,2.478,-0.307,0.163,-0.833,58.281
'0:00.285',494.87,893.79,26.805,-6.392,-55.842,1.208,-9.121,2.546,1.203,-9.096,2.466,-0.304,0.16,-0.831,58.284
'0:00.289',494.023,856.403,27.555,-9.655,-56.716,1.171,-9.179,2.569,1.136,-9.202,2.454,-0.321,0.165,-0.827,58.288
'0:00.293',465.994,819.79,27.768,-13.168,-57.563,1.146,-9.251,2.567,1.107,-9.221,2.444,-0.318,0.158,-0.82,58.292
'0:00.297',442.789,789.005,28.044,-16.519,-58.182,1.144,-9.359,2.59,1.088,-9.299,2.423,-0.325,0.163,-0.833,58.296
'0:00.301',412.088,739.93,28.093,-19.945,-58.827,1.168,-9.419,2.613,1.097,-9.386,2.452,-0.316,0.165,-0.814,58.3
'0:00.305',367.307,745.791,28.255,-23.431,-59.3,1.167,-9.551,2.635,1.04,-9.492,2.441,-0.316,0.165,-0.814,58.304
'0:00.309',335.237,701.094,28.002,-26.29,-59.706,1.19,-9.671,2.657,1.067,-9.529,2.558,-0.321,0.163,-0.843,58.308
'0:00.313',304.21,737,27.852,-29.074,-60.325,1.25,-9.756,2.693,1.153,-9.724,2.626,-0.33,0.162,-0.806,58.312
'0:00.316',277.289,717.228,27.785,-31.394,-60.798,1.322,-9.865,2.74,1.21,-9.879,2.684,-0.323,0.169,-0.864,58.316
'0:00.320',231.726,714.298,27.548,-33.511,-60.949,1.382,-9.974,2.776,1.297,-9.948,2.724,-0.346,0.169,-0.785,58.32
'0:00.324',206.63,695.975,27.411,-35.055,-61.505,1.504,-10.059,2.86,1.344,-10.044,2.793,-0.332,0.172,-0.789,58.324
'0:00.328',191.247,747.98,26.637,-36.889,-62.452,1.601,-10.157,2.896,1.45,-10.074,2.824,-0.363,0.172,-0.808,58.327
'0:00.332',157.873,719.417,26.605,-37.186,-62.722,1.686,-10.229,2.969,1.622,-10.144,2.885,-0.363,0.172,-0.808,58.331
'0:00.336',129.78,773.612,26.181,-37.165,-63.086,1.746,-10.289,3.029,1.679,-10.28,2.924,-0.359,0.17,-0.777,58.335
'0:00.340',116.613,758.96,26.101,-36.997,-63.596,1.795,-10.289,3.09,1.727,-10.261,2.964,-0.359,0.174,-0.774,58.339
'0:00.344',92.886,778.024,25.695,-36.613,-64.022,1.844,-10.278,3.152,1.774,-10.249,3.121,-0.372,0.163,-0.802,58.343
'0:00.348',94.776,834.442,25.368,-36.087,-64.485,1.869,-10.205,3.214,1.793,-10.21,3.131,-0.366,0.162,-0.812,58.347
'0:00.352',107.422,857.144,25.556,-35.527,-65.13,1.882,-10.132,3.24,1.832,-10.152,3.142,-0.373,0.169,-0.781,58.351
'0:00.355',108.269,879.105,25.602,-34.327,-66.019,1.908,-10.036,3.302,1.831,-10.112,3.24,-0.373,0.169,-0.774,58.355
'0:00.359',112.571,909.149,25.383,-33.079,-66.789,1.909,-9.951,3.328,1.83,-10.033,3.319,-0.384,0.174,-0.774,58.359
'0:00.363',109.312,915.01,25.421,-31.717,-68.053,1.935,-9.831,3.355,1.879,-9.84,3.301,-0.379,0.176,-0.795,58.363
'0:00.367',113.614,916.492,25.446,-29.883,-69.124,1.936,-9.734,3.393,1.869,-9.8,3.331,-0.393,0.167,-0.793,58.367
'0:00.371',124.174,961.895,25.839,-28.083,-70.46,1.949,-9.639,3.383,1.898,-9.722,3.361,-0.375,0.179,-0.766,58.37
'0:00.375',106.053,993.422,25.681,-25.797,-71.537,1.986,-9.555,3.385,1.947,-9.676,3.275,-0.414,0.172,-0.756,58.374
'0:00.379',125.738,1012.452,25.729,-23.977,-72.452,1.975,-9.471,3.398,1.917,-9.577,3.353,-0.412,0.179,-0.747,58.378
'0:00.383',124.174,1046.168,26.02,-21.509,-73.617,1.976,-9.386,3.4,1.889,-9.5,3.324,-0.412,0.179,-0.747,58.382
'0:00.387',146.01,1104.034,25.653,-19.095,-74.735,1.965,-9.315,3.352,1.927,-9.423,3.306,-0.412,0.188,-0.758,58.386
'0:00.391',156.244,1115.015,25.6,-16.513,-75.494,1.941,-9.231,3.293,1.889,-9.316,3.257,-0.417,0.172,-0.745,58.39
'0:00.395',183.425,1125.288,25.472,-14.288,-76.243,1.917,-9.172,3.221,1.841,-9.267,3.247,-0.429,0.183,-0.722,58.394
'0:00.398',185.902,1185.343,25.227,-12.022,-76.81,1.882,-9.088,3.174,1.775,-9.122,3.159,-0.408,0.181,-0.737,58.398
'0:00.402',203.697,1189.014,25.225,-9.527,-77.32,1.821,-9.004,3.114,1.766,-9.084,3.11,-0.421,0.185,-0.791,58.402
'0:00.406',212.562,1212.457,24.879,-7.06,-77.731,1.81,-8.921,3.055,1.728,-8.969,3.013,-0.429,0.188,-0.71,58.406
'0:00.410',222.014,1274.735,24.632,-5.077,-77.97,1.75,-8.836,2.995,1.7,-8.882,2.935,-0.429,0.188,-0.71,58.409
'0:00.414',214.452,1278.373,24.714,-2.643,-78.344,1.702,-8.775,2.971,1.681,-8.864,2.886,-0.433,0.185,-0.726,58.413
'0:00.418',216.082,1286.457,24.201,-0.674,-78.469,1.702,-8.74,2.947,1.643,-8.785,2.886,-0.452,0.183,-0.733,58.417
'0:00.422',203.111,1309.9,24.049,1.504,-78.225,1.69,-8.704,2.936,1.576,-8.765,2.875,-0.452,0.186,-0.699,58.421
'0:00.426',198.548,1350.924,24.163,3.27,-78.063,1.691,-8.68,2.924,1.576,-8.727,2.837,-0.454,0.192,-0.689,58.425
'0:00.430',176.451,1337.721,23.629,4.868,-77.788,1.666,-8.679,2.936,1.585,-8.697,2.856,-0.447,0.19,-0.762,58.429
'0:00.434',165.956,1353.114,23.441,6.419,-77.393,1.691,-8.68,2.936,1.595,-8.688,2.866,-0.447,0.19,-0.762,58.433
'0:00.438',148.683,1386.83,23.04,7.012,-77.023,1.715,-8.716,2.96,1.576,-8.716,2.885,-0.464,0.181,-0.731,58.437
'0:00.441',121.175,1421.994,23.047,7.451,-76.581,1.714,-8.74,2.972,1.556,-8.726,2.875,-0.47,0.193,-0.676,58.441
'0:00.445',88.845,1412.462,22.711,7.612,-76.29,1.677,-8.75,2.995,1.566,-8.745,2.885,-0.466,0.192,-0.691,58.445
'0:00.449',52.146,1413.203,22.08,6.54,-75.63,1.628,-8.797,3.018,1.556,-8.823,2.855,-0.48,0.197,-0.67,58.449
'0:00.453',21.967,1404.412,22.287,5.596,-74.933,1.566,-8.842,3.089,1.527,-8.849,2.971,-0.473,0.201,-0.676,58.452
'0:00.457',16.035,1434.423,22.644,4.727,-74.449,1.517,-8.888,3.16,1.439,-8.925,3.028,-0.48,0.202,-0.685,58.456
'0:00.461',3.911,1418.322,22.861,3.459,-74.236,1.516,-8.958,3.244,1.401,-8.924,3.047,-0.48,0.202,-0.685,58.46
'0:00.465',-23.857,1455.676,23.019,1.868,-74.35,1.551,-9.053,3.339,1.457,-9.048,3.183,-0.496,0.202,-0.67,58.464
'0:00.469',-40.87,1425.631,23.511,-0.823,-74.954,1.586,-9.172,3.446,1.485,-9.076,3.272,-0.499,0.202,-0.691,58.468
'0:00.473',-56.774,1431.492,23.914,-3.917,-75.656,1.61,-9.267,3.566,1.523,-9.278,3.407,-0.48,0.201,-0.676,58.472
'0:00.477',-51.625,1435.164,24.155,-7.929,-77.034,1.633,-9.41,3.648,1.589,-9.403,3.554,-0.492,0.193,-0.705,58.476
'0:00.480',-64.271,1452.005,24.697,-13.121,-78.89,1.644,-9.542,3.695,1.588,-9.489,3.582,-0.512,0.201,-0.657,58.48
'0:00.484',-71.832,1434.423,25.417,-19.405,-81.241,1.703,-9.649,3.815,1.674,-9.625,3.69,-0.512,0.201,-0.657,58.484
'0:00.488',-69.941,1416.133,26.056,-25.777,-83.779,1.763,-9.769,3.874,1.721,-9.712,3.768,-0.515,0.209,-0.657,58.488
'0:00.492',-72.093,1462.278,27.162,-32.614,-86.514,1.897,-9.868,3.91,1.826,-9.838,3.867,-0.526,0.204,-0.651,58.492
'0:00.496',-70.202,1424.183,28.192,-39.626,-89.811,2.055,-9.968,3.886,1.942,-9.878,3.868,-0.531,0.208,-0.613,58.495
'0:00.500',-82.066,1461.537,29.382,-47.273,-93.212,2.25,-10.02,3.888,2.134,-9.969,3.881,-0.534,0.197,-0.624,58.499
'0:00.504',-86.433,1438.835,30.309,-54.629,-97.154,2.47,-10.085,3.902,2.383,-10.06,3.923,-0.531,0.201,-0.676,58.503
'0:00.508',-82.913,1464.467,31.695,-62.288,-100.56,2.69,-10.174,3.94,2.518,-10.091,3.925,-0.546,0.193,-0.634,58.507
'0:00.512',-87.215,1473.258,32.597,-68.606,-104.034,2.995,-10.253,3.931,2.874,-10.213,3.93,-0.546,0.193,-0.634,58.511
'0:00.516',-72.418,1468.879,33.947,-73.131,-107.867,3.336,-10.383,3.836,3.057,-10.238,3.855,-0.55,0.201,-0.605,58.515
'0:00.520',-69.42,1504.044,37.217,-76.698,-116.833,3.812,-10.564,3.743,3.587,-10.451,3.794,-0.55,0.201,-0.593,58.519
'0:00.523',-54.884,1482.79,38.928,-76.967,-122.314,4.312,-10.769,3.674,4.183,-10.763,3.773,-0.557,0.206,-0.605,58.523
'0:00.527',-48.366,1482.79,40.591,-76.448,-127.452,4.775,-11.033,3.603,4.529,-10.887,3.709,-0.569,0.197,-0.557,58.527
'0:00.531',-52.407,1490.099,41.834,-75.113,-132.475,5.189,-11.248,3.556,5.049,-11.168,3.647,-0.581,0.192,-0.57,58.531
'0:00.535',-55.927,1500.372,42.97,-73.016,-136.61,5.518,-11.389,3.474,5.299,-11.271,3.602,-0.588,0.179,-0.586,58.534
'0:00.539',-54.298,1516.472,43.293,-70.427,-139.834,5.75,-11.431,3.452,5.627,-11.366,3.499,-0.588,0.179,-0.586,58.538
'0:00.543',-70.528,1520.144,43.449,-67.649,-143.043,5.898,-11.4,3.394,5.753,-11.408,3.452,-0.597,0.188,-0.545,58.542
'0:00.547',-92.364,1479.119,43.478,-65.572,-145.913,5.997,-11.308,3.276,5.898,-11.364,3.319,-0.608,0.193,-0.54,58.546
'0:00.551',-96.667,1494.511,43.905,-63.259,-148.768,5.998,-11.178,3.157,5.976,-11.231,3.223,-0.609,0.192,-0.549,58.55
'0:00.555',-120.132,1471.069,43.725,-60.839,-151.441,5.964,-11.01,3.087,5.956,-11.143,3.253,-0.629,0.178,-0.54,58.554
'0:00.559',-152.203,1468.879,43.789,-58.931,-154.343,5.941,-10.831,3.03,5.996,-10.922,3.158,-0.632,0.192,-0.511,58.558
'0:00.563',-196.657,1500.372,43.711,-56.928,-157.198,5.943,-10.65,3.033,5.997,-10.836,3.1,-0.632,0.192,-0.511,58.562
'0:00.566',-216.082,1475.447,43.884,-55.647,-160.183,5.932,-10.518,3.047,5.939,-10.641,3.11,-0.632,0.192,-0.511,58.566
'0:00.570',-223.122,1463.019,44.029,-54.743,-163.501,5.958,-10.398,3.074,5.958,-10.476,3.112,-0.641,0.181,-0.482,58.57
'0:00.574',-250.89,1465.208,44.01,-54.737,-166.054,5.972,-10.253,3.089,5.978,-10.379,3.103,-0.662,0.186,-0.471,58.574
'0:00.578',-251.672,1485.72,43.81,-55.566,-168.592,5.961,-10.12,3.115,5.959,-10.184,3.104,-0.665,0.174,-0.438,58.577
'0:00.582',-261.906,1472.517,43.126,-57.171,-170.662,6,-9.94,3.192,5.968,-10.097,3.115,-0.674,0.172,-0.455,58.581
'0:00.586',-277.81,1454.228,42.518,-59.261,-172.742,6.002,-9.746,3.292,5.967,-9.803,3.235,-0.69,0.174,-0.417,58.585
'0:00.590',-283.221,1455.676,41.376,-61.783,-173.704,5.98,-9.456,3.321,5.977,-9.716,3.265,-0.69,0.174,-0.417,58.589
'0:00.594',-297.496,1466.656,40.475,-63.691,-173.985,5.959,-9.179,3.314,5.92,-9.395,3.257,-0.7,0.172,-0.417,58.593
'0:00.598',-301.537,1445.437,39.65,-65.619,-173.975,5.95,-8.879,3.307,5.863,-9.035,3.229,-0.702,0.172,-0.373,58.597
'0:00.602',-295.605,1487.91,39.051,-67.629,-174.183,5.979,-8.519,3.302,5.872,-8.85,3.26,-0.707,0.178,-0.356,58.601
'0:00.605',-292.672,1493.77,38.16,-69.341,-174.698,6.044,-8.158,3.394,5.969,-8.414,3.275,-0.723,0.165,-0.386,58.605
'0:00.609',-311.51,1468.138,36.902,-71.823,-175.145,6.109,-7.797,3.522,5.988,-8.161,3.326,-0.733,0.163,-0.325,58.609
'0:00.613',-325.785,1491.581,34.965,-74.574,-175.519,6.199,-7.401,3.591,6.074,-7.685,3.449,-0.733,0.163,-0.325,58.613
'0:00.617',-332.825,1525.263,32.291,-77.945,-175.472,6.202,-7.09,3.524,6.123,-7.269,3.414,-0.737,0.167,-0.312,58.617
'0:00.621',-344.167,1519.403,30.788,-80.635,-175.394,6.218,-6.779,3.445,6.133,-7.027,3.357,-0.742,0.154,-0.325,58.62
'0:00.625',-354.661,1547.258,29.161,-84.553,-174.651,6.233,-6.502,3.511,6.133,-6.668,3.389,-0.749,0.144,-0.325,58.624
'0:00.629',-371.087,1567.029,27.84,-86.859,-173.938,6.249,-6.189,3.553,6.133,-6.492,3.44,-0.749,0.146,-0.285,58.628
'0:00.633',-371.348,1596.333,26.012,-89.3,-172.305,6.24,-5.876,3.571,6.161,-6.074,3.512,-0.763,0.151,-0.285,58.632
'0:00.637',-366.525,1646.149,23.954,-92.698,-171.224,6.219,-5.527,3.589,6.171,-5.704,3.544,-0.76,0.14,-0.283,58.636
'0:00.641',-347.1,1689.363,21.89,-95.186,-169.752,6.174,-5.164,3.619,6.104,-5.461,3.535,-0.76,0.14,-0.283,58.64
'0:00.645',-323.373,1709.875,19.431,-98.153,-167.765,6.117,-4.804,3.564,5.999,-5.023,3.478,-0.784,0.135,-0.269,58.644
'0:00.648',-304.796,1723.82,16.696,-100.418,-165.425,6.024,-4.395,3.473,5.933,-4.829,3.401,-0.781,0.135,-0.237,58.648
'0:00.652',-288.891,1740.661,14.056,-102.441,-163.173,5.918,-3.985,3.407,5.799,-4.266,3.296,-0.803,0.119,-0.214,58.652
'0:00.656',-285.372,1777.307,11.578,-103.506,-160.516,5.849,-3.625,3.303,5.771,-4.023,3.248,-0.786,0.126,-0.152,58.656
'0:00.660',-266.208,1810.248,8.533,-104.437,-157.807,5.791,-3.253,3.2,5.696,-3.538,3.153,-0.802,0.114,-0.185,58.659
'0:00.664',-272.4,1824.9,6.239,-104.632,-155.186,5.807,-2.966,3.121,5.697,-3.153,3.02,-0.802,0.101,-0.158,58.663
'0:00.668',-252.193,1852.755,4.187,-103.601,-153.059,5.896,-2.681,3.079,5.726,-2.92,3.022,-0.802,0.101,-0.158,58.667
'0:00.672',-238.701,1862.287,2.332,-101.618,-149.782,5.984,-2.443,3.024,5.804,-2.632,2.947,-0.814,0.101,-0.183,58.671
'0:00.676',-237.918,1871.785,0.813,-98.274,-146.485,6.085,-2.218,2.981,5.843,-2.468,2.891,-0.814,0.101,-0.183,58.675
'0:00.680',-249.782,1905.501,-0.874,-94.343,-142.59,6.185,-2.004,3.01,5.92,-2.256,2.894,-0.824,0.08,-0.154,58.679
'0:00.684',-252.454,1878.387,-2.811,-89.954,-137.749,6.273,-1.788,3.052,5.987,-2.101,2.916,-0.831,0.078,-0.097,58.683
'0:00.688',-247.891,1877.646,-5.285,-84.849,-132.876,6.312,-1.573,3.056,6.074,-1.84,2.929,-0.828,0.087,-0.087,58.687
'0:00.691',-252.715,1868.148,-7.699,-79.671,-127.109,6.326,-1.442,2.998,6.123,-1.59,2.854,-0.828,0.087,-0.087,58.691
'0:00.695',-254.605,1868.855,-10.316,-74.149,-121.227,6.316,-1.275,2.916,6.085,-1.493,2.854,-0.837,0.069,-0.118,58.695
'0:00.699',-251.15,1876.939,-12.625,-68.532,-115.439,6.207,-1.105,2.894,6.028,-1.298,2.796,-0.842,0.066,-0.064,58.699
'0:00.703',-251.672,1851.273,-14.098,-63.172,-109.848,6.148,-0.96,2.884,5.96,-1.171,2.806,-0.842,0.073,-0.049,58.702
'0:00.707',-244.632,1837.362,-16.494,-58.007,-104.409,6.076,-0.827,2.837,5.894,-0.929,2.728,-0.819,0.062,-0.099,58.706
'0:00.711',-234.138,1805.869,-18.735,-52.404,-98.995,6.004,-0.705,2.801,5.808,-0.782,2.699,-0.84,0.046,-0.078,58.71
'0:00.715',-239.026,1783.168,-23.481,-40.705,-87.861,5.931,-0.609,2.742,5.731,-0.694,2.669,-0.842,0.059,-0.039,58.714
'0:00.719',-236.028,1746.521,-25.938,-34.381,-82.432,5.883,-0.526,2.633,5.713,-0.608,2.601,-0.842,0.059,-0.039,58.718
'0:00.723',-234.398,1750.9,-27.819,-28.488,-76.919,5.823,-0.479,2.488,5.637,-0.58,2.473,-0.844,0.059,-0.041,58.722
'0:00.727',-240.852,1697.447,-29.56,-23.073,-71.157,5.787,-0.431,2.416,5.58,-0.493,2.346,-0.851,0.046,-0.032,58.726
'0:00.730',-246.262,1702.566,-31.501,-17.679,-65.083,5.738,-0.382,2.428,5.561,-0.464,2.336,-0.859,0.05,-0.022,58.73
'0:00.734',-238.179,1663.731,-34.15,-12.514,-58.349,5.763,-0.382,2.453,5.504,-0.445,2.286,-0.849,0.05,-0.026,58.734
'0:00.738',-238.44,1621.965,-37.312,-7.68,-51.723,5.872,-0.481,2.44,5.552,-0.495,2.267,-0.865,0.048,-0.018,58.738
'0:00.742',-250.303,1576.561,-41.018,-2.4,-43.481,5.848,-0.447,2.308,5.552,-0.465,2.267,-0.865,0.048,-0.018,58.742
'0:00.746',-252.454,1550.929,-41.376,3.513,-36.413,5.702,-0.35,2.174,5.505,-0.409,2.15,-0.865,0.055,0.014,58.745
'0:00.750',-257.864,1539.208,-42.702,8.017,-30.412,5.543,-0.298,2.209,5.438,-0.369,2.129,-0.842,0.057,-0.034,58.749
'0:00.754',-269.467,1490.099,-44.392,11.274,-24.775,5.421,-0.318,2.231,5.293,-0.348,2.108,-0.866,0.046,-0.018,58.753
'0:00.758',-271.618,1477.67,-46.636,14.234,-19.028,5.346,-0.376,2.253,5.168,-0.365,2.105,-0.847,0.039,-0.028,58.757
'0:00.762',-267.316,1472.517,-48.647,17.072,-13.069,5.26,-0.435,2.215,5.062,-0.372,2.152,-0.856,0.043,0.005,58.761
'0:00.766',-266.794,1419.063,-50.886,18.981,-6.865,5.161,-0.507,2.103,4.957,-0.489,2.023,-0.845,0.05,-0.06,58.765
'0:00.770',-270.51,1418.322,-52.355,21.03,-0.458,5.113,-0.433,2.152,4.881,-0.518,1.992,-0.845,0.05,-0.06,58.769
'0:00.773',-267.577,1375.108,-54.938,23.019,5.351,5.002,-0.539,2.137,4.822,-0.545,2.049,-0.859,0.043,-0.03,58.773
'0:00.777',-257.343,1333.342,-55.122,23.168,12.559,4.975,-0.743,2.096,4.774,-0.709,2.018,-0.849,0.054,-0.001,58.777
'0:00.781',-252.715,1303.298,-56.798,24.017,18.8,4.95,-0.803,2.083,4.755,-0.767,2.066,-0.851,0.052,-0.03,58.781
'0:00.785',-233.095,1312.83,-58.6,24.402,25.144,4.937,-0.865,1.985,4.755,-0.885,1.958,-0.837,0.059,-0.034,58.784
'0:00.789',-219.341,1284.234,-60.32,24.348,31.364,4.961,-0.952,1.875,4.766,-0.965,1.869,-0.845,0.052,-0.005,58.788
'0:00.793',-202.85,1208.786,-61.253,24.503,37.141,5.008,-1.123,1.788,4.795,-1.102,1.82,-0.845,0.052,-0.03,58.792
'0:00.797',-194.246,1186.084,-61.399,25.42,42.758,5.153,-1.33,1.774,4.872,-1.212,1.732,-0.828,0.059,-0.03,58.796
'0:00.801',-157.548,1129.666,-61.323,26.391,47.402,5.443,-1.651,1.712,5.094,-1.509,1.607,-0.844,0.045,-0.045,58.8
'0:00.805',-136.559,1120.134,-61.464,28.056,50.912,5.965,-2.061,1.627,5.69,-1.995,1.603,-0.84,0.057,-0.02,58.804
'0:00.809',-105.01,1080.591,-61.107,31.131,53.122,6.621,-2.608,1.457,6.075,-2.333,1.529,-0.84,0.066,-0.032,58.808
'0:00.813',-88.845,1016.865,-59.774,35.277,54.766,7.348,-3.287,1.394,6.951,-3.069,1.421,-0.851,0.057,-0.028,58.812
'0:00.816',-66.487,967.756,-57.933,38.143,56.924,8.051,-3.988,1.415,7.383,-3.553,1.366,-0.845,0.068,-0.011,58.816
'0:00.820',-46.215,895.238,-56.992,37.718,59.368,8.692,-4.687,1.412,8.229,-4.402,1.354,-0.845,0.068,-0.011,58.82
'0:00.824',-38.132,887.188,-57.028,34.839,62.041,9.199,-5.422,1.297,9.085,-5.252,1.323,-0.837,0.073,-0.062,58.824
'0:00.828',-20.924,836.631,-56.794,31.596,64.246,9.51,-6.116,1.216,9.181,-5.673,1.262,-0.845,0.071,-0.053,58.827
'0:00.832',23.857,767.751,-56.247,28.562,65.77,9.686,-6.794,1.146,9.527,-6.564,1.144,-0.837,0.075,-0.039,58.831
'0:00.836',41.652,752.392,-55.293,24.422,66.493,9.753,-7.361,1.137,9.605,-6.975,1.054,-0.831,0.066,-0.07,58.835
'0:00.840',63.228,687.184,-54.394,19.803,67.122,9.735,-7.876,1.2,9.699,-7.634,1.177,-0.824,0.069,-0.057,58.839
'0:00.844',76.134,669.602,-53.22,14.76,67.756,9.645,-8.245,1.264,9.66,-7.894,1.262,-0.824,0.064,-0.085,58.843
'0:00.848',79.914,628.577,-52.752,9.595,67.824,9.484,-8.497,1.112,9.564,-8.369,1.198,-0.824,0.064,-0.085,58.847
'0:00.852',90.996,572.159,-52.579,4.673,68.027,9.323,-8.643,0.841,9.383,-8.624,0.939,-0.816,0.073,-0.062,58.851
'0:00.855',104.489,554.577,-52.239,0.189,68.547,9.189,-8.647,0.464,9.288,-8.637,0.694,-0.802,0.071,-0.076,58.855
'0:00.859',123.326,483.508,-51.241,-3.688,68.718,9.079,-8.662,0.148,9.148,-8.7,0.261,-0.807,0.064,-0.114,58.859
'0:00.863',153.832,498.9,-50.112,-6.453,69.322,9.005,-8.738,-0.121,9.053,-8.771,0.025,-0.812,0.061,-0.103,58.863
'0:00.867',191.834,468.856,-49.785,-8.071,70.065,8.979,-8.911,-0.439,8.988,-8.883,-0.28,-0.793,0.069,-0.162,58.867
'0:00.871',203.436,410.249,-49.744,-8.509,70.762,9.063,-9.063,-0.743,9.039,-9.066,-0.691,-0.793,0.069,-0.162,58.87
'0:00.875',200.959,379.497,-49.369,-7.687,71.724,9.209,-9.18,-1.01,9.098,-9.147,-0.817,-0.817,0.062,-0.091,58.874
'0:00.879',203.958,392.667,-49.175,-5.704,73.279,9.379,-9.259,-1.19,9.292,-9.243,-1.059,-0.798,0.073,-0.101,58.878
'0:00.883',202.85,388.288,-49.189,-2.926,75.853,9.501,-9.36,-1.299,9.322,-9.323,-1.156,-0.802,0.068,-0.12,58.882
'0:00.887',194.246,372.154,-49.135,0.384,79.431,9.549,-9.423,-1.384,9.447,-9.394,-1.233,-0.802,0.064,-0.116,58.886
'0:00.891',173.778,367.035,-49.339,4.74,83.295,9.537,-9.473,-1.506,9.506,-9.446,-1.369,-0.786,0.062,-0.135,58.89
'0:00.895',168.368,361.174,-49.35,9.581,87.513,9.438,-9.507,-1.508,9.439,-9.514,-1.439,-0.791,0.066,-0.158,58.894
'0:00.898',137.341,361.174,-48.909,15.393,93.02,9.181,-9.523,-1.415,9.179,-9.538,-1.385,-0.791,0.066,-0.158,58.898
'0:00.902',106.64,358.244,-48.712,21.651,95.37,8.924,-9.503,-1.286,9.044,-9.544,-1.31,-0.774,0.059,-0.187,58.902
'0:00.906',69.42,370.706,-49.128,35.689,99.78,8.63,-9.446,-1.156,8.706,-9.497,-1.188,-0.781,0.059,-0.193,58.906
'0:00.910',48.105,386.065,-48.839,42.546,100.924,8.41,-9.402,-1.025,8.542,-9.492,-1.074,-0.756,0.062,-0.166,58.909
'0:00.914',37.35,373.636,-48.582,49.026,101.273,8.227,-9.31,-0.832,8.242,-9.434,-0.834,-0.761,0.064,-0.231,58.913
'0:00.918',19.555,424.16,-48.174,55.634,101.356,8.081,-9.231,-0.627,8.086,-9.321,-0.621,-0.774,0.075,-0.177,58.917
'0:00.922',-23.336,435.174,-47.499,62.322,101.315,8.02,-9.177,-0.409,8.047,-9.269,-0.475,-0.774,0.075,-0.177,58.921
'0:00.926',-39.24,471.079,-46.456,69.665,101.242,7.984,-9.124,-0.191,7.997,-9.156,-0.221,-0.753,0.069,-0.212,58.925
'0:00.930',-45.954,529.686,-45.348,77.318,101.377,7.948,-9.035,0.016,7.976,-9.133,-0.055,-0.761,0.075,-0.221,58.929
'0:00.934',-61.337,538.477,-44.388,85.321,101.413,7.912,-8.946,0.223,7.888,-9.021,0.149,-0.756,0.082,-0.202,58.933
'0:00.938',-65.118,597.084,-43.014,92.59,101.413,7.827,-8.857,0.405,7.849,-8.979,0.266,-0.753,0.077,-0.231,58.937
'0:00.941',-73.722,685.702,-41.541,102.886,101.304,7.742,-8.732,0.563,7.789,-8.846,0.569,-0.73,0.089,-0.289,58.941
'0:00.945',-70.202,734.81,-39.648,112.083,100.732,7.596,-8.629,0.708,7.623,-8.723,0.792,-0.735,0.085,-0.275,58.945
'0:00.949',-75.612,802.916,-37.915,121.981,99.468,7.451,-8.48,0.83,7.556,-8.662,0.859,-0.735,0.085,-0.275,58.949
'0:00.953',-76.981,883.517,-36.218,131.603,98.277,7.281,-8.355,0.878,7.315,-8.433,0.964,-0.728,0.096,-0.25,58.952
'0:00.957',-83.434,927.472,-34.464,141.144,96.884,7.111,-8.17,0.904,7.228,-8.324,0.974,-0.714,0.103,-0.262,58.956
'0:00.961',-75.612,1018.313,-32.953,150.165,94.887,6.93,-7.985,0.904,7.026,-8.166,0.962,-0.725,0.11,-0.26,58.96
'0:00.965',-69.681,1085.711,-31.598,159.052,92.973,6.711,-7.813,0.88,6.815,-7.889,1.019,-0.702,0.121,-0.26,58.964
'0:00.969',-72.94,1140.647,-30.811,167.501,90.815,6.542,-7.641,0.844,6.652,-7.752,0.939,-0.699,0.126,-0.292,58.968
'0:00.973',-90.735,1182.413,-30.203,175.551,89.4,6.336,-7.432,0.833,6.402,-7.623,0.867,-0.707,0.133,-0.279,58.972
'0:00.977',-83.695,1272.512,-29.758,183.959,88.521,6.117,-7.272,0.773,6.259,-7.467,0.788,-0.707,0.133,-0.279,58.976
'0:00.980',-93.668,1340.651,-29.84,191.498,88.324,5.947,-7.126,0.676,6.01,-7.26,0.698,-0.686,0.137,-0.346,58.98
'0:00.984',-100.969,1394.139,-29.84,198.955,88.048,5.765,-7.003,0.591,5.895,-7.182,0.648,-0.669,0.154,-0.331,58.984
'0:00.988',-101.49,1435.905,-30.125,206.17,85.063,5.558,-6.928,0.505,5.646,-6.966,0.538,-0.648,0.16,-0.352,58.988
'0:00.992',-105.271,1455.676,-30.832,213.728,84.569,5.387,-6.854,0.395,5.464,-6.927,0.379,-0.672,0.167,-0.354,58.992
'0:00.996',-102.337,1530.417,-31.419,220.201,84.106,5.241,-6.817,0.284,5.302,-6.848,0.279,-0.646,0.172,-0.384,58.995
'0:01.000',-96.406,1519.403,-32.571,226.694,83.357,5.119,-6.78,0.187,5.11,-6.818,0.188,-0.646,0.172,-0.384,58.999
'0:01.004',-100.708,1577.302,-33.975,232.399,83.331,4.96,-6.79,0.099,5.034,-6.818,0.089,-0.629,0.179,-0.419,59.003
'0:01.008',-113.353,1550.188,-35.486,238.15,83.035,4.886,-6.826,0.025,4.89,-6.875,0.037,-0.655,0.206,-0.331,59.007
'0:01.012',-102.337,1578.01,-36.573,244.306,83.95,4.75,-6.896,-0.026,4.736,-6.942,-0.034,-0.632,0.225,-0.386,59.011
'0:01.016',34.612,1569.219,-38.187,250.624,84.98,4.602,-7.001,-0.079,4.641,-6.97,-0.065,-0.632,0.224,-0.375,59.015
'0:01.020',205.001,1563.358,-39.992,255.034,88.189,4.43,-7.095,-0.143,4.429,-7.094,-0.138,-0.62,0.245,-0.361,59.019
'0:01.023',392.924,1574.372,-42.261,258.122,88.938,4.22,-7.223,-0.185,4.314,-7.16,-0.131,-0.604,0.254,-0.379,59.023
'0:01.027',505.625,1531.865,-44.451,260.232,88.485,4.035,-7.399,-0.227,4.093,-7.303,-0.224,-0.604,0.254,-0.379,59.027
'0:01.031',393.445,1490.84,-46.72,261.54,91.21,3.849,-7.576,-0.269,3.997,-7.428,-0.236,-0.569,0.245,-0.463,59.031
'0:01.035',73.722,1498.89,-49.259,261.938,91.85,3.602,-7.799,-0.289,3.661,-7.658,-0.341,-0.588,0.263,-0.425,59.034
'0:01.039',-197.766,1449.074,-51.275,261.742,92.697,3.416,-8.024,-0.32,3.391,-7.992,-0.29,-0.552,0.286,-0.463,59.038
'0:01.043',-508.298,1425.631,-53.676,260.61,93.94,3.216,-8.308,-0.315,3.275,-8.165,-0.313,-0.566,0.284,-0.404,59.042
'0:01.047',-832.388,1382.417,-55.762,258.519,94.928,3.042,-8.592,-0.323,3.035,-8.481,-0.31,-0.536,0.3,-0.45,59.046
'0:01.051',-989.284,1333.342,-58.077,254.98,96.52,2.806,-8.887,-0.307,2.881,-8.683,-0.324,-0.536,0.3,-0.45,59.05
'0:01.055',-944.764,1274.735,-60.251,251.082,97.503,2.51,-9.072,-0.278,2.582,-8.988,-0.312,-0.539,0.303,-0.442,59.054
'0:01.059',-785.717,1213.905,-61.825,245.466,98.657,2.347,-9.367,-0.201,2.35,-9.333,-0.26,-0.508,0.317,-0.434,59.058
'0:01.063',-595.643,1165.571,-63.427,239.101,98.064,2.172,-9.687,-0.173,2.225,-9.477,-0.292,-0.505,0.309,-0.478,59.062
'0:01.066',-419.062,1141.388,-65.628,232.554,98.948,2.01,-9.959,-0.132,1.984,-9.811,-0.241,-0.494,0.33,-0.453,59.066
'0:01.070',-207.739,1090.831,-67.658,224.887,100.087,1.836,-10.183,-0.102,1.907,-9.994,-0.204,-0.484,0.339,-0.473,59.07
'0:01.074',-59.968,1055.667,-69.391,216.506,100.789,1.675,-10.382,-0.023,1.722,-10.26,-0.063,-0.468,0.348,-0.503,59.074
'0:01.078',9.843,983.89,-70.725,207.903,101.731,1.514,-10.533,0.044,1.607,-10.384,-0.027,-0.468,0.348,-0.503,59.077
'0:01.082',16.296,987.561,-71.865,198.112,101.918,1.39,-10.649,0.149,1.423,-10.554,0.056,-0.463,0.342,-0.509,59.081
'0:01.086',48.692,945.795,-73.15,188.214,102.505,1.291,-10.753,0.207,1.239,-10.673,0.238,-0.438,0.362,-0.499,59.085
'0:01.090',58.339,926.731,-74.271,177.635,102.921,1.18,-10.821,0.301,1.171,-10.691,0.266,-0.445,0.351,-0.501,59.089
'0:01.094',70.528,902.581,-75.29,155.849,102.261,1.081,-10.877,0.383,1.035,-10.841,0.418,-0.429,0.367,-0.482,59.093
'0:01.098',89.887,889.378,-75.461,144.737,102.017,0.995,-10.922,0.466,1.025,-10.879,0.447,-0.403,0.367,-0.524,59.097
'0:01.102',80.762,887.188,-75.495,133.7,101.205,1.006,-10.98,0.562,0.929,-10.925,0.514,-0.41,0.362,-0.526,59.101
'0:01.105',97.97,861.523,-75.341,123.222,100.612,0.981,-11.05,0.669,0.889,-11.03,0.571,-0.41,0.362,-0.526,59.105
'0:01.109',107.161,890.86,-75.182,112.791,99.65,0.98,-11.12,0.752,0.927,-11.088,0.629,-0.386,0.364,-0.549,59.109
'0:01.113',117.395,888.637,-74.659,102.879,98.428,0.979,-11.227,0.811,0.927,-11.183,0.717,-0.377,0.364,-0.528,59.113
'0:01.117',136.037,907.701,-74.112,92.057,97.061,1.002,-11.323,0.894,0.926,-11.27,0.735,-0.346,0.36,-0.561,59.117
'0:01.121',127.889,897.428,-73.293,84.957,95.703,1.014,-11.382,0.954,0.964,-11.326,0.892,-0.332,0.372,-0.568,59.12
'0:01.125',146.792,964.118,-72.441,76.792,94.018,1.122,-11.503,1.026,1.002,-11.414,0.911,-0.346,0.371,-0.536,59.124
'0:01.129',186.684,979.477,-71.307,69.53,90.799,1.171,-11.54,1.05,1.135,-11.49,1.098,-0.346,0.371,-0.536,59.128
'0:01.133',209.89,1024.915,-70.423,62.969,90.274,1.244,-11.6,1.123,1.212,-11.549,1.129,-0.347,0.372,-0.568,59.132
'0:01.137',259.755,1057.149,-68.912,56.827,88.553,1.329,-11.589,1.16,1.25,-11.56,1.09,-0.333,0.369,-0.545,59.136
'0:01.141',285.372,1084.97,-67.559,51.743,86.082,1.354,-11.601,1.197,1.316,-11.627,1.227,-0.323,0.376,-0.545,59.14
'0:01.145',322.591,1095.243,-65.932,47.212,83.643,1.391,-11.577,1.246,1.365,-11.599,1.199,-0.298,0.355,-0.62,59.144
'0:01.148',394.293,1179.482,-64.161,43.477,81.054,1.453,-11.505,1.297,1.413,-11.55,1.259,-0.283,0.365,-0.603,59.148
'0:01.152',446.569,1207.337,-62.399,40.854,78.355,1.527,-11.447,1.311,1.471,-11.464,1.221,-0.286,0.353,-0.637,59.152
'0:01.156',495.913,1265.203,-60.692,38.318,75.562,1.516,-11.362,1.324,1.48,-11.386,1.261,-0.286,0.353,-0.637,59.156
'0:01.160',509.145,1307.677,-58.668,36.518,72.249,1.59,-11.243,1.376,1.604,-11.239,1.44,-0.29,0.372,-0.59,59.159
'0:01.164',533.654,1348.735,-56.823,34.974,69.41,1.653,-11.123,1.403,1.604,-11.22,1.441,-0.297,0.365,-0.565,59.163
'0:01.168',572.503,1374.367,-54.964,34.05,66.04,1.654,-11.003,1.418,1.662,-11.075,1.452,-0.274,0.371,-0.574,59.167
'0:01.172',558.489,1400.74,-52.988,33.093,62.779,1.668,-10.883,1.444,1.69,-10.968,1.483,-0.277,0.374,-0.603,59.171
'0:01.176',574.654,1422.701,-51.066,32.452,59.358,1.681,-10.751,1.447,1.681,-10.745,1.455,-0.274,0.358,-0.63,59.175
'0:01.180',571.656,1493.029,-49.297,32.102,55.967,1.67,-10.63,1.473,1.69,-10.627,1.544,-0.274,0.358,-0.63,59.179
'0:01.184',533.393,1514.283,-47.583,31.845,52.467,1.672,-10.473,1.488,1.738,-10.541,1.517,-0.258,0.364,-0.595,59.183
'0:01.188',526.679,1522.333,-45.827,31.266,49.004,1.674,-10.353,1.502,1.72,-10.425,1.478,-0.27,0.372,-0.605,59.187
'0:01.191',510.449,1575.079,-44.447,30.645,45.732,1.65,-10.268,1.503,1.71,-10.366,1.498,-0.255,0.372,-0.588,59.191
'0:01.195',474.598,1602.193,-43.143,29.775,42.446,1.602,-10.159,1.505,1.642,-10.208,1.566,-0.255,0.365,-0.626,59.195
'0:01.199',440.377,1609.536,-41.974,28.953,39.118,1.591,-10.05,1.531,1.623,-10.053,1.528,-0.248,0.365,-0.593,59.199
'0:01.203',419.91,1632.979,-40.667,27.699,36.117,1.579,-9.99,1.544,1.614,-10.034,1.519,-0.258,0.374,-0.611,59.202
'0:01.207',396.965,1661.541,-39.382,26.155,33.184,1.568,-9.905,1.557,1.585,-9.936,1.529,-0.258,0.374,-0.611,59.206
'0:01.211',379.692,1671.073,-38.014,25.029,30.438,1.581,-9.844,1.595,1.566,-9.935,1.558,-0.253,0.378,-0.582,59.21
'0:01.215',358.703,1684.243,-36.953,23.451,27.999,1.606,-9.82,1.632,1.575,-9.848,1.549,-0.241,0.376,-0.595,59.214
'0:01.219',339.799,1708.427,-35.743,21.792,25.898,1.618,-9.796,1.681,1.594,-9.838,1.578,-0.248,0.376,-0.607,59.218
'0:01.223',305.839,1741.402,-34.686,19.918,23.828,1.668,-9.76,1.718,1.642,-9.781,1.599,-0.249,0.381,-0.588,59.222
'0:01.227',285.632,1705.497,-33.232,18.057,22.357,1.704,-9.748,1.768,1.661,-9.779,1.678,-0.242,0.374,-0.599,59.226
'0:01.230',267.577,1715.029,-31.824,16.378,21.124,1.717,-9.736,1.792,1.65,-9.747,1.853,-0.22,0.385,-0.62,59.23
'0:01.234',243.329,1725.268,-30.543,14.22,20.027,1.741,-9.723,1.841,1.718,-9.769,1.786,-0.22,0.385,-0.62,59.234
'0:01.238',223.382,1713.547,-29.19,12.299,19.585,1.754,-9.723,1.866,1.718,-9.72,1.777,-0.241,0.369,-0.63,59.238
'0:01.242',191.573,1678.382,-28.055,9.993,18.909,1.741,-9.698,1.89,1.689,-9.67,1.845,-0.232,0.383,-0.599,59.242
'0:01.246',174.039,1646.89,-26.698,7.639,18.95,1.742,-9.685,1.939,1.679,-9.718,1.854,-0.242,0.385,-0.603,59.245
'0:01.250',155.983,1630.049,-25.233,5.34,18.68,1.729,-9.672,1.975,1.669,-9.708,1.854,-0.232,0.381,-0.637,59.249
'0:01.254',129.258,1605.865,-24.049,2.468,18.82,1.718,-9.635,2,1.64,-9.648,1.913,-0.234,0.392,-0.597,59.253
'0:01.258',108.269,1596.333,-22.485,-0.58,19.039,1.681,-9.634,2.023,1.62,-9.666,1.971,-0.234,0.392,-0.597,59.257
'0:01.262',93.407,1563.358,-21.219,-3.998,19.325,1.656,-9.645,2.035,1.592,-9.657,1.951,-0.235,0.39,-0.626,59.261
'0:01.266',108.53,1555.308,-20.052,-7.714,19.803,1.657,-9.597,2.036,1.572,-9.655,2.009,-0.246,0.387,-0.582,59.265
'0:01.270',90.474,1500.372,-18.739,-11.955,20.084,1.645,-9.586,2,1.534,-9.616,1.989,-0.244,0.385,-0.632,59.269
'0:01.273',80.175,1507.681,-17.745,-16.351,20.932,1.669,-9.562,2,1.563,-9.618,1.911,-0.232,0.397,-0.68,59.273
'0:01.277',74.569,1455.676,-16.686,-20.841,21.696,1.694,-9.539,1.977,1.572,-9.559,1.961,-0.235,0.392,-0.637,59.277
'0:01.281',59.968,1420.512,-15.825,-25.426,22.487,1.756,-9.48,1.979,1.621,-9.513,1.894,-0.248,0.388,-0.639,59.281
'0:01.285',45.433,1410.272,-14.208,-34.63,24.244,1.818,-9.41,1.969,1.659,-9.503,1.914,-0.248,0.388,-0.639,59.284
'0:01.289',59.968,1391.949,-13.516,-38.716,25.321,1.917,-9.352,1.959,1.746,-9.437,1.867,-0.218,0.392,-0.613,59.288
'0:01.293',61.859,1368.506,-12.678,-42.775,26.21,2.015,-9.318,1.973,1.92,-9.334,1.852,-0.258,0.388,-0.626,59.292
'0:01.297',85.325,1355.303,-12.002,-46.288,27.307,2.126,-9.273,1.988,1.996,-9.305,1.912,-0.262,0.394,-0.599,59.296
'0:01.301',103.902,1298.885,-11.424,-49.558,28.498,2.249,-9.203,2.003,2.131,-9.258,1.934,-0.248,0.399,-0.649,59.3
'0:01.305',109.312,1282.044,-10.846,-52.235,29.674,2.372,-9.17,2.017,2.188,-9.258,2.003,-0.26,0.387,-0.628,59.304
'0:01.309',126.586,1287.164,-10.187,-54.723,31.098,2.495,-9.147,2.068,2.351,-9.183,2.026,-0.26,0.387,-0.628,59.308
'0:01.313',127.107,1295.248,-9.698,-56.416,32.237,2.617,-9.126,2.094,2.438,-9.155,2.037,-0.256,0.383,-0.649,59.312
'0:01.316',101.229,1242.502,-8.925,-58.229,33.522,2.715,-9.103,2.132,2.534,-9.137,2.01,-0.265,0.383,-0.618,59.316
'0:01.320',89.105,1264.462,-8.244,-59.14,34.479,2.813,-9.105,2.17,2.668,-9.109,2.11,-0.248,0.392,-0.672,59.32
'0:01.324',48.692,1235.159,-7.319,-59.74,35.794,2.911,-9.106,2.195,2.707,-9.09,2.13,-0.265,0.376,-0.651,59.324
'0:01.328',18.708,1268.134,-6.384,-59.935,37.147,2.985,-9.108,2.208,2.803,-9.091,2.152,-0.265,0.39,-0.626,59.327
'0:01.332',-30.571,1259.343,-5.679,-59.571,37.989,3.058,-9.121,2.233,2.86,-9.131,2.152,-0.267,0.381,-0.659,59.331
'0:01.336',-59.968,1252.741,-4.719,-59.133,38.873,3.131,-9.146,2.246,2.994,-9.083,2.213,-0.267,0.381,-0.659,59.335
'0:01.340',-74.83,1279.855,-3.917,-58.331,39.617,3.168,-9.124,2.223,3.071,-9.112,2.283,-0.263,0.39,-0.657,59.339
'0:01.344',-97.97,1249.07,-3.01,-57.245,40.646,3.193,-9.088,2.224,3.072,-9.124,2.185,-0.274,0.376,-0.649,59.343
'0:01.348',-93.929,1259.343,-2.032,-56.065,41.213,3.218,-9.089,2.2,3.11,-9.125,2.176,-0.256,0.387,-0.639,59.347
'0:01.352',-95.558,1306.228,-1.233,-54.413,42.3,3.218,-9.078,2.188,3.11,-9.096,2.147,-0.27,0.365,-0.676,59.351
'0:01.355',-95.298,1273.253,-0.393,-52.68,42.555,3.205,-9.078,2.176,3.168,-9.116,2.158,-0.276,0.376,-0.645,59.355
'0:01.359',-108.791,1294.507,0.699,-50.92,43.033,3.23,-9.042,2.165,3.149,-9.077,2.138,-0.272,0.383,-0.659,59.359
'0:01.363',-127.629,1311.348,1.572,-48.77,43.262,3.242,-9.091,2.14,3.111,-9.068,2.098,-0.272,0.383,-0.659,59.363
'0:01.367',-106.64,1320.88,2.467,-46.706,43.678,3.242,-9.139,2.139,3.091,-9.135,2.117,-0.283,0.376,-0.641,59.367
'0:01.371',-111.463,1336.273,3.571,-44.596,43.6,3.229,-9.187,2.126,3.13,-9.154,2.157,-0.267,0.362,-0.728,59.37
'0:01.375',-113.614,1361.905,4.403,-42.351,44.032,3.24,-9.248,2.125,3.13,-9.262,2.097,-0.258,0.364,-0.699,59.374
'0:01.379',-110.42,1369.248,5.348,-40.618,44.084,3.216,-9.283,2.1,3.149,-9.282,2.088,-0.263,0.369,-0.708,59.378
'0:01.383',-95.558,1350.183,6.234,-39.101,44.079,3.166,-9.33,2.11,3.063,-9.339,2.086,-0.281,0.372,-0.664,59.382
'0:01.387',-89.105,1357.526,7.155,-37.678,43.996,3.116,-9.377,2.097,3.034,-9.359,2.017,-0.281,0.372,-0.664,59.386
'0:01.391',-93.407,1394.88,8.311,-37.017,44.074,3.03,-9.424,2.094,2.976,-9.377,2.055,-0.279,0.372,-0.68,59.39
'0:01.395',-81.283,1425.631,9.244,-36.228,43.772,2.981,-9.459,2.093,2.919,-9.454,2.024,-0.272,0.372,-0.666,59.394
'0:01.398',-49.213,1408.049,10.396,-35.999,43.657,2.895,-9.493,2.067,2.88,-9.453,2.043,-0.286,0.378,-0.653,59.398
'0:01.402',-49.735,1410.272,11.399,-35.803,42.883,2.833,-9.528,2.041,2.813,-9.52,2.041,-0.276,0.379,-0.672,59.402
'0:01.406',-38.393,1450.556,12.448,-36.039,42.103,2.808,-9.576,2.016,2.765,-9.569,1.962,-0.286,0.367,-0.687,59.406
'0:01.410',-25.487,1432.233,13.492,-36.633,41.432,2.759,-9.612,1.978,2.697,-9.606,1.999,-0.283,0.376,-0.662,59.409
'0:01.414',-2.021,1444.696,14.719,-37.213,40.787,2.722,-9.623,1.966,2.679,-9.637,1.901,-0.283,0.376,-0.662,59.413
'0:01.418',11.211,1481.308,15.664,-38.224,39.664,2.685,-9.647,1.928,2.669,-9.617,1.93,-0.277,0.378,-0.666,59.417
'0:01.422',29.006,1453.487,16.848,-39.074,38.629,2.661,-9.635,1.916,2.592,-9.645,1.919,-0.277,0.371,-0.676,59.421
'0:01.426',43.803,1503.303,17.975,-40.328,37.531,2.599,-9.658,1.903,2.583,-9.676,1.821,-0.267,0.372,-0.714,59.425
'0:01.430',57.296,1482.79,19.187,-41.373,36.59,2.55,-9.657,1.878,2.516,-9.674,1.839,-0.276,0.365,-0.697,59.429
'0:01.434',78.024,1512.094,20.343,-42.674,35.254,2.501,-9.668,1.865,2.487,-9.694,1.809,-0.258,0.374,-0.745,59.433
'0:01.438',119.546,1522.333,21.287,-44.292,33.569,2.452,-9.667,1.84,2.401,-9.692,1.837,-0.258,0.374,-0.745,59.437
'0:01.441',137.602,1512.094,22.468,-45.816,32.019,2.391,-9.63,1.816,2.362,-9.624,1.818,-0.279,0.356,-0.718,59.441
'0:01.445',172.409,1533.347,23.418,-47.67,30.246,2.343,-9.618,1.791,2.334,-9.624,1.759,-0.27,0.364,-0.693,59.445
'0:01.449',188.053,1542.845,24.56,-49.794,28.592,2.282,-9.569,1.755,2.296,-9.585,1.729,-0.274,0.367,-0.71,59.449
'0:01.453',207.152,1521.626,25.634,-51.777,26.481,2.258,-9.521,1.743,2.305,-9.625,1.7,-0.269,0.378,-0.672,59.452
'0:01.457',230.096,1553.859,26.396,-53.8,24.484,2.197,-9.46,1.707,2.229,-9.575,1.689,-0.281,0.36,-0.733,59.456
'0:01.461',247.631,1565.581,27.409,-56.018,22.102,2.173,-9.436,1.683,2.143,-9.458,1.63,-0.256,0.365,-0.722,59.46
'0:01.465',253.041,1547.999,28.35,-58.02,19.902,2.149,-9.399,1.671,2.124,-9.43,1.6,-0.256,0.365,-0.722,59.464
'0:01.469',270.836,1547.999,29.062,-60.036,17.718,2.161,-9.412,1.659,2.162,-9.401,1.572,-0.255,0.369,-0.743,59.468
'0:01.473',287.001,1551.636,29.813,-61.958,15.643,2.149,-9.448,1.634,2.172,-9.401,1.611,-0.276,0.346,-0.751,59.472
'0:01.477',275.399,1557.497,31.185,-65.572,11.951,2.161,-9.472,1.634,2.115,-9.469,1.532,-0.277,0.358,-0.728,59.476
'0:01.480',278.332,1571.442,32.027,-67.022,10.219,2.172,-9.581,1.632,2.134,-9.558,1.512,-0.286,0.362,-0.71,59.48
'0:01.484',285.632,1567.029,32.69,-68.586,8.955,2.183,-9.678,1.618,2.115,-9.635,1.521,-0.29,0.372,-0.682,59.484
'0:01.488',287.262,1568.511,33.329,-70.13,7.842,2.182,-9.798,1.616,2.162,-9.771,1.559,-0.277,0.36,-0.722,59.488
'0:01.492',286.154,1556.049,33.838,-71.465,6.594,2.168,-9.93,1.601,2.172,-9.839,1.559,-0.277,0.36,-0.722,59.492
'0:01.496',273.508,1549.447,34.574,-73.083,5.388,2.179,-10.038,1.6,2.181,-9.954,1.626,-0.297,0.367,-0.718,59.495
'0:01.500',276.181,1556.79,35.034,-74.823,4.483,2.227,-10.171,1.61,2.181,-10.022,1.636,-0.3,0.364,-0.685,59.499
'0:01.504',268.62,1551.636,35.397,-76.563,3.38,2.262,-10.293,1.596,2.19,-10.159,1.586,-0.288,0.353,-0.708,59.503
'0:01.508',256.235,1553.118,35.488,-78.451,2.543,2.31,-10.426,1.582,2.248,-10.364,1.556,-0.3,0.356,-0.716,59.507
'0:01.512',254.605,1547.258,36.037,-80.379,1.992,2.332,-10.571,1.556,2.258,-10.452,1.555,-0.298,0.358,-0.691,59.511
'0:01.516',238.701,1496.701,36.193,-82.382,1.357,2.343,-10.705,1.505,2.228,-10.655,1.573,-0.298,0.358,-0.691,59.515
'0:01.520',240.33,1513.542,36.178,-84.553,1.035,2.391,-10.826,1.504,2.258,-10.695,1.544,-0.304,0.356,-0.687,59.519
'0:01.523',219.602,1460.796,35.957,-86.65,0.9,2.402,-10.959,1.465,2.306,-10.901,1.494,-0.302,0.348,-0.72,59.523
'0:01.527',209.89,1444.696,35.484,-88.679,0.598,2.449,-11.094,1.415,2.383,-11.029,1.455,-0.312,0.356,-0.693,59.527
'0:01.531',206.891,1444.696,35.235,-90.702,0.385,2.46,-11.214,1.389,2.374,-11.078,1.396,-0.304,0.358,-0.695,59.531
'0:01.535',188.053,1416.84,34.034,-92.421,0.291,2.532,-11.373,1.351,2.432,-11.294,1.327,-0.284,0.337,-0.785,59.534
'0:01.539',203.958,1349.442,33.475,-94.127,0.172,2.591,-11.555,1.324,2.5,-11.375,1.249,-0.309,0.333,-0.739,59.538
'0:01.543',185.055,1341.392,32.436,-95.408,0.192,2.675,-11.713,1.371,2.586,-11.61,1.22,-0.309,0.333,-0.739,59.542
'0:01.547',178.862,1333.342,31.115,-96.143,0.302,2.771,-11.931,1.392,2.614,-11.774,1.297,-0.309,0.346,-0.705,59.546
'0:01.551',176.451,1278.373,30.134,-96.568,0.66,2.855,-12.088,1.451,2.71,-11.968,1.365,-0.325,0.346,-0.72,59.55
'0:01.555',169.998,1238.089,28.912,-96.986,0.962,2.975,-12.257,1.522,2.853,-12.144,1.454,-0.312,0.348,-0.737,59.554
'0:01.559',167.846,1233.71,27.654,-96.925,1.628,3.047,-12.353,1.631,2.881,-12.248,1.6,-0.326,0.333,-0.731,59.558
'0:01.563',151.616,1218.318,26.736,-95.988,1.94,3.12,-12.412,1.752,3.034,-12.385,1.7,-0.323,0.342,-0.722,59.562
'0:01.566',148.422,1172.88,25.748,-95.058,2.449,3.169,-12.388,1.849,3.072,-12.394,1.749,-0.323,0.342,-0.722,59.566
'0:01.570',130.105,1147.248,24.94,-93.891,2.709,3.207,-12.327,1.948,3.138,-12.364,1.867,-0.332,0.328,-0.71,59.57
'0:01.574',121.175,1167.761,24.089,-92.812,2.325,3.196,-12.167,2.096,3.118,-12.215,2.015,-0.333,0.326,-0.737,59.574
'0:01.578',116.613,1158.97,23.481,-91.471,2.241,3.161,-11.972,2.22,3.108,-12.068,2.084,-0.312,0.325,-0.703,59.577
'0:01.582',101.229,1147.989,23.017,-89.677,1.789,3.103,-11.727,2.393,3.077,-11.81,2.33,-0.33,0.335,-0.774,59.581
'0:01.586',100.969,1135.527,22.836,-88.281,0.884,3.007,-11.469,2.554,3.01,-11.633,2.398,-0.337,0.319,-0.716,59.585
'0:01.590',99.078,1143.577,22.538,-86.967,-0.13,2.863,-11.187,2.666,2.893,-11.336,2.604,-0.34,0.328,-0.743,59.589
'0:01.594',87.736,1149.438,22.418,-85.497,-1.316,2.744,-10.894,2.79,2.825,-11.129,2.731,-0.34,0.328,-0.743,59.593
'0:01.598',82.066,1155.298,22.137,-84.195,-2.943,2.625,-10.565,2.867,2.641,-10.773,2.858,-0.347,0.317,-0.724,59.597
'0:01.602',83.695,1168.502,22.27,-82.793,-4.857,2.518,-10.272,2.98,2.487,-10.39,2.975,-0.346,0.319,-0.703,59.601
'0:01.605',84.803,1161.9,22.603,-81.444,-7.125,2.435,-9.981,3.044,2.458,-10.195,2.996,-0.346,0.316,-0.699,59.605
'0:01.609',83.956,1233.71,22.696,-80.123,-9.174,2.389,-9.702,3.121,2.391,-9.815,3.037,-0.356,0.309,-0.735,59.609
'0:01.613',87.215,1231.487,22.867,-78.403,-11.81,2.343,-9.424,3.162,2.391,-9.669,3.028,-0.342,0.31,-0.745,59.613
'0:01.617',79.654,1257.153,23.104,-76.731,-14.254,2.285,-9.205,3.177,2.323,-9.298,3.089,-0.359,0.3,-0.724,59.617
'0:01.621',66.422,1315.76,23.481,-75.295,-16.782,2.263,-8.977,3.181,2.256,-9.025,3.09,-0.359,0.3,-0.724,59.62
'0:01.625',70.202,1385.348,23.836,-73.34,-19.153,2.253,-8.747,3.221,2.247,-8.898,3.101,-0.344,0.303,-0.751,59.624
'0:01.629',69.42,1425.631,24.562,-71.337,-21.577,2.23,-8.554,3.249,2.188,-8.671,3.248,-0.366,0.291,-0.745,59.628
'0:01.633',70.202,1435.164,25.421,-68.593,-24.27,2.22,-8.361,3.3,2.198,-8.506,3.279,-0.361,0.294,-0.714,59.632
'0:01.637',76.721,1479.119,26.512,-65.316,-26.397,2.222,-8.168,3.328,2.178,-8.291,3.329,-0.368,0.303,-0.714,59.636
'0:01.641',64.271,1558.238,27.293,-62.255,-28.727,2.236,-8.035,3.355,2.197,-8.164,3.359,-0.382,0.296,-0.695,59.64
'0:01.645',55.927,1564.84,28.23,-58.769,-31.145,2.237,-7.928,3.333,2.179,-7.971,3.302,-0.382,0.296,-0.695,59.644
'0:01.648',56.449,1608.054,29.078,-55.411,-33.017,2.177,-7.794,3.322,2.189,-7.836,3.264,-0.377,0.303,-0.701,59.648
'0:01.652',54.298,1646.89,30.104,-51.932,-35.082,2.142,-7.71,3.287,2.17,-7.768,3.264,-0.373,0.305,-0.712,59.652
'0:01.656',41.913,1695.965,31.134,-48.426,-36.949,2.118,-7.638,3.251,2.112,-7.621,3.265,-0.379,0.286,-0.754,59.656
'0:01.660',46.215,1717.959,31.883,-44.839,-38.962,2.069,-7.614,3.215,2.054,-7.619,3.293,-0.389,0.289,-0.697,59.659
'0:01.664',40.022,1734.8,32.554,-41.069,-40.964,2.021,-7.554,3.143,2.016,-7.591,3.214,-0.38,0.296,-0.758,59.663
'0:01.668',26.855,1790.477,34.526,-33.127,-44.443,1.984,-7.566,3.094,1.95,-7.563,3.087,-0.384,0.294,-0.685,59.667
'0:01.672',24.118,1777.307,35.513,-29.398,-46.341,1.935,-7.578,3.032,1.94,-7.553,3.096,-0.384,0.294,-0.685,59.671
'0:01.676',8.474,1790.477,36.558,-26.155,-48.203,1.91,-7.602,3.019,1.884,-7.584,2.988,-0.391,0.289,-0.726,59.675
'0:01.680',11.211,1801.457,37.265,-22.979,-49.44,1.898,-7.625,3.007,1.865,-7.603,2.958,-0.391,0.298,-0.691,59.679
'0:01.684',7.17,1780.945,38.255,-20.012,-50.824,1.885,-7.65,2.982,1.797,-7.621,2.976,-0.407,0.293,-0.699,59.683
'0:01.688',11.994,1758.243,38.958,-17.173,-51.671,1.86,-7.698,2.92,1.845,-7.642,2.957,-0.414,0.303,-0.676,59.687
'0:01.691',8.735,1778.755,39.585,-14.524,-52.566,1.775,-7.709,2.882,1.769,-7.68,2.917,-0.41,0.307,-0.676,59.691
'0:01.695',7.17,1758.243,40.387,-11.867,-53.585,1.701,-7.768,2.868,1.673,-7.747,2.895,-0.41,0.307,-0.676,59.695
'0:01.699',-6.323,1730.388,41.469,-9.494,-54.698,1.59,-7.826,2.841,1.586,-7.775,2.844,-0.421,0.303,-0.689,59.699
'0:01.703',-8.213,1705.497,42.434,-7.707,-55.291,1.491,-7.884,2.803,1.471,-7.833,2.803,-0.414,0.303,-0.659,59.702
'0:01.707',-17.404,1638.099,43.278,-6.406,-55.972,1.392,-7.979,2.751,1.414,-7.891,2.743,-0.419,0.294,-0.674,59.706
'0:01.711',-6.323,1616.845,43.939,-5.778,-56.622,1.294,-8.038,2.7,1.327,-7.987,2.721,-0.408,0.309,-0.726,59.71
'0:01.715',-26.855,1578.751,44.572,-5.853,-57.028,1.195,-8.121,2.649,1.174,-8.092,2.649,-0.428,0.3,-0.695,59.714
'0:01.719',-9.06,1577.302,45.152,-6.675,-57.028,1.096,-8.179,2.622,1.116,-8.131,2.629,-0.403,0.31,-0.659,59.718
'0:01.723',-9.582,1508.422,45.498,-7.491,-57.189,0.961,-8.225,2.583,0.944,-8.236,2.556,-0.403,0.31,-0.659,59.722
'0:01.727',-15.774,1460.088,45.802,-9.48,-57.184,0.862,-8.272,2.545,0.886,-8.275,2.506,-0.424,0.305,-0.697,59.726
'0:01.730',-19.294,1430.785,45.897,-11.543,-57.231,0.764,-8.318,2.506,0.713,-8.311,2.464,-0.431,0.307,-0.68,59.73
'0:01.734',-10.951,1386.83,45.73,-14.2,-56.991,0.69,-8.365,2.48,0.636,-8.339,2.462,-0.433,0.321,-0.634,59.734
'0:01.738',-12.515,1358.974,45.703,-17.099,-56.737,0.641,-8.399,2.503,0.54,-8.367,2.451,-0.443,0.319,-0.651,59.738
'0:01.742',-26.269,1341.392,45.509,-20.147,-56.263,0.603,-8.446,2.514,0.482,-8.414,2.479,-0.459,0.314,-0.624,59.742
'0:01.746',-28.42,1293.025,44.8,-23.491,-55.556,0.566,-8.481,2.549,0.463,-8.442,2.507,-0.452,0.326,-0.622,59.745
'0:01.750',-32.461,1253.482,44.221,-27.051,-54.745,0.565,-8.553,2.548,0.482,-8.539,2.517,-0.452,0.326,-0.622,59.749
'0:01.754',-43.282,1263.721,43.208,-30.949,-53.783,0.589,-8.613,2.559,0.463,-8.589,2.458,-0.456,0.326,-0.647,59.753
'0:01.758',-46.801,1226.368,42.225,-34.664,-52.529,0.65,-8.662,2.595,0.454,-8.686,2.427,-0.471,0.317,-0.63,59.757
'0:01.762',-59.186,1189.755,41.29,-38.48,-51.032,0.674,-8.746,2.618,0.521,-8.745,2.477,-0.468,0.314,-0.657,59.761
'0:01.766',-58.926,1167.02,40.07,-41.616,-49.321,0.722,-8.818,2.702,0.52,-8.762,2.565,-0.447,0.319,-0.613,59.765
'0:01.770',-62.38,1147.248,38.886,-44.697,-47.168,0.794,-8.927,2.75,0.644,-8.871,2.595,-0.466,0.316,-0.672,59.769
'0:01.773',-75.352,1139.198,37.548,-47.509,-45.259,0.891,-9.012,2.81,0.673,-8.938,2.654,-0.466,0.316,-0.672,59.773
'0:01.777',-49.735,1157.521,36.345,-50.185,-43.018,1,-9.085,2.895,0.768,-9.045,2.752,-0.477,0.316,-0.626,59.777
'0:01.781',-46.801,1147.248,34.946,-52.411,-40.813,1.073,-9.133,2.98,0.835,-9.103,2.801,-0.489,0.319,-0.624,59.781
'0:01.785',-58.078,1134.786,33.327,-54.528,-38.545,1.158,-9.194,3.053,0.969,-9.21,2.94,-0.484,0.321,-0.609,59.784
'0:01.789',-57.557,1142.87,31.877,-56.564,-36.247,1.231,-9.219,3.114,1.075,-9.222,2.922,-0.499,0.319,-0.584,59.788
'0:01.793',-57.296,1144.318,30.499,-58.283,-33.584,1.292,-9.242,3.223,1.103,-9.231,2.981,-0.498,0.317,-0.59,59.792
'0:01.797',-52.146,1145.8,29.173,-59.517,-31.639,1.341,-9.229,3.321,1.189,-9.23,3.099,-0.506,0.314,-0.607,59.796
'0:01.801',-49.474,1149.438,28.125,-60.414,-29.138,1.415,-9.217,3.419,1.216,-9.228,3.217,-0.506,0.314,-0.607,59.8
'0:01.805',-41.652,1137.009,27.033,-60.832,-26.99,1.489,-9.169,3.506,1.254,-9.198,3.325,-0.51,0.31,-0.576,59.804
'0:01.809',-39.24,1137.009,25.78,-61.129,-25.243,1.55,-9.121,3.58,1.407,-9.12,3.465,-0.503,0.316,-0.595,59.808
'0:01.813',-39.762,1133.338,24.697,-60.893,-23.277,1.625,-9.025,3.667,1.455,-9.071,3.505,-0.519,0.305,-0.59,59.812
'0:01.816',-37.089,1189.755,23.948,-60.664,-21.514,1.662,-8.941,3.706,1.55,-9.023,3.586,-0.503,0.305,-0.622,59.816
'0:01.820',-19.555,1187.532,23.192,-60.117,-19.944,1.712,-8.845,3.744,1.579,-8.955,3.596,-0.501,0.289,-0.643,59.82
'0:01.824',4.954,1180.223,22.015,-59.389,-18.503,1.763,-8.726,3.759,1.617,-8.799,3.667,-0.501,0.289,-0.643,59.824
'0:01.828',9.582,1223.437,21.16,-58.122,-17.354,1.813,-8.558,3.8,1.675,-8.723,3.658,-0.501,0.289,-0.643,59.827
'0:01.832',10.625,1230.78,20.501,-56.672,-16.147,1.839,-8.426,3.802,1.723,-8.528,3.71,-0.501,0.293,-0.637,59.831
'0:01.836',27.377,1273.994,19.526,-55.128,-15.076,1.866,-8.259,3.794,1.751,-8.362,3.78,-0.517,0.303,-0.586,59.835
'0:01.840',57.557,1260.791,18.606,-52.997,-13.833,1.891,-8.151,3.784,1.742,-8.246,3.781,-0.524,0.296,-0.595,59.839
'0:01.844',82.391,1299.626,17.754,-50.644,-12.746,1.917,-8.009,3.75,1.723,-8.003,3.763,-0.533,0.294,-0.568,59.843
'0:01.848',121.436,1309.159,16.612,-48.183,-11.961,1.931,-7.853,3.705,1.752,-7.965,3.754,-0.538,0.303,-0.58,59.847
'0:01.852',123.587,1320.88,15.66,-45.479,-10.983,1.957,-7.723,3.635,1.811,-7.861,3.648,-0.538,0.303,-0.58,59.851
'0:01.855',124.695,1343.582,14.622,-42.587,-9.855,1.947,-7.592,3.577,1.84,-7.618,3.66,-0.526,0.298,-0.593,59.855
'0:01.859',123.326,1391.949,13.782,-39.377,-8.7,1.936,-7.496,3.53,1.85,-7.552,3.593,-0.541,0.291,-0.58,59.859
'0:01.863',116.091,1419.063,12.186,-32.709,-6.277,1.937,-7.365,3.496,1.793,-7.466,3.495,-0.533,0.289,-0.57,59.863
'0:01.867',107.682,1432.974,11.103,-29.722,-4.873,1.877,-7.268,3.448,1.726,-7.378,3.426,-0.539,0.289,-0.588,59.867
'0:01.871',93.147,1429.303,10.386,-26.762,-3.406,1.817,-7.172,3.389,1.737,-7.235,3.33,-0.529,0.291,-0.572,59.87
'0:01.875',76.134,1446.885,9.457,-24.429,-2.044,1.757,-7.075,3.353,1.689,-7.187,3.251,-0.531,0.284,-0.605,59.874
'0:01.879',57.817,1490.84,8.784,-22.237,-0.572,1.648,-6.953,3.294,1.613,-7.031,3.232,-0.531,0.284,-0.605,59.878
'0:01.883',20.598,1482.049,7.889,-20.558,1.019,1.575,-6.892,3.245,1.47,-6.953,3.113,-0.533,0.278,-0.572,59.882
'0:01.887',13.884,1531.124,7.066,-19.19,2.444,1.514,-6.832,3.209,1.441,-6.923,3.132,-0.531,0.291,-0.63,59.886
'0:01.891',12.776,1549.447,6.376,-17.989,3.932,1.479,-6.748,3.162,1.345,-6.796,3.092,-0.539,0.287,-0.559,59.89
'0:01.895',7.952,1556.049,5.498,-17.329,5.778,1.406,-6.711,3.125,1.355,-6.758,3.063,-0.538,0.293,-0.561,59.894
'0:01.898',-25.226,1535.536,4.673,-17.099,7.509,1.357,-6.698,3.076,1.269,-6.739,2.925,-0.548,0.286,-0.584,59.898
'0:01.902',-72.418,1550.929,4.002,-17.315,9.246,1.321,-6.65,3.028,1.173,-6.641,2.895,-0.548,0.286,-0.584,59.902
'0:01.906',-92.886,1558.238,3.328,-17.78,11.295,1.308,-6.663,2.991,1.154,-6.67,2.904,-0.539,0.282,-0.557,59.906
'0:01.910',-113.614,1580.94,2.476,-18.488,12.949,1.272,-6.65,2.967,1.106,-6.689,2.894,-0.534,0.293,-0.557,59.909
'0:01.914',-123.587,1583.163,1.65,-19.601,15.284,1.247,-6.675,2.918,1.116,-6.65,2.884,-0.522,0.294,-0.603,59.913
'0:01.918',-126.064,1580.233,0.701,-20.848,17.343,1.247,-6.687,2.881,1.117,-6.691,2.777,-0.499,0.275,-0.637,59.917
'0:01.922',-138.97,1580.233,-0.167,-22.709,19.876,1.247,-6.724,2.856,1.098,-6.691,2.757,-0.541,0.277,-0.593,59.921
'0:01.926',-123.848,1584.611,-0.766,-24.294,21.935,1.246,-6.773,2.819,1.089,-6.722,2.659,-0.538,0.286,-0.593,59.925
'0:01.930',-127.954,1578.01,-1.819,-26.209,24.239,1.258,-6.846,2.782,1.117,-6.848,2.678,-0.538,0.286,-0.593,59.929
'0:01.934',-93.147,1591.213,-2.758,-28.36,26.683,1.282,-6.907,2.769,1.117,-6.887,2.687,-0.543,0.282,-0.568,59.933
'0:01.938',-51.364,1607.313,-3.548,-30.301,28.597,1.342,-6.969,2.744,1.127,-6.966,2.648,-0.536,0.271,-0.611,59.937
'0:01.941',-31.158,1610.984,-4.358,-32.52,30.932,1.39,-7.03,2.72,1.175,-6.986,2.658,-0.517,0.264,-0.624,59.941
'0:01.945',5.541,1565.581,-5.39,-34.779,33.381,1.439,-7.092,2.707,1.252,-7.105,2.59,-0.508,0.271,-0.626,59.945
'0:01.949',35.981,1565.581,-6.167,-36.72,35.649,1.499,-7.166,2.695,1.31,-7.203,2.551,-0.536,0.264,-0.626,59.949
'0:01.953',52.407,1583.87,-7.169,-38.763,38.415,1.535,-7.251,2.657,1.339,-7.223,2.552,-0.536,0.264,-0.637,59.952
'0:01.957',91.256,1577.302,-8.33,-40.584,40.75,1.608,-7.301,2.657,1.435,-7.272,2.621,-0.515,0.268,-0.637,59.956
'0:01.961',111.202,1533.347,-9.322,-42.688,43.319,1.657,-7.339,2.633,1.473,-7.332,2.592,-0.541,0.266,-0.607,59.96
'0:01.965',119.024,1554.567,-10.658,-44.488,45.764,1.693,-7.399,2.633,1.531,-7.392,2.544,-0.541,0.268,-0.588,59.964
'0:01.969',90.148,1515.765,-12.133,-46.625,48.218,1.729,-7.461,2.632,1.541,-7.403,2.495,-0.527,0.268,-0.63,59.968
'0:01.973',89.887,1542.138,-13.459,-48.203,50.735,1.789,-7.51,2.632,1.59,-7.491,2.466,-0.533,0.259,-0.616,59.972
'0:01.977',59.708,1495.96,-14.925,-49.929,53.044,1.825,-7.595,2.631,1.676,-7.599,2.486,-0.533,0.261,-0.601,59.976
'0:01.980',45.433,1531.124,-16.494,-51.595,55.566,1.898,-7.681,2.618,1.724,-7.648,2.506,-0.533,0.261,-0.601,59.98
'0:01.984',-38.393,1494.511,-18.127,-52.977,57.844,1.934,-7.753,2.654,1.839,-7.698,2.556,-0.515,0.243,-0.622,59.984
'0:01.988',-63.488,1477.67,-19.59,-53.948,60.372,2.018,-7.851,2.677,1.829,-7.795,2.536,-0.515,0.24,-0.643,59.988
'0:01.992',-38.393,1488.651,-21.291,-55.081,62.769,2.115,-7.937,2.677,1.906,-7.883,2.556,-0.517,0.232,-0.649,59.992
'0:01.996',47.062,1458.606,-22.591,-55.694,65.104,2.163,-8.058,2.712,1.924,-8.008,2.643,-0.505,0.241,-0.678,59.995
'0:02.000',186.424,1480.601,-24.524,-56.409,67.559,2.235,-8.155,2.748,2.02,-8.097,2.664,-0.505,0.227,-0.67,59.999
'0:02.004',253.562,1481.308,-25.852,-56.672,69.862,2.283,-8.264,2.758,2.116,-8.243,2.703,-0.515,0.234,-0.62,0.003
'0:02.008',183.165,1456.417,-27.58,-57.178,72.187,2.355,-8.373,2.782,2.135,-8.321,2.722,-0.515,0.234,-0.62,0.007
'0:02.012',-57.296,1447.626,-28.899,-57.076,74.314,2.416,-8.458,2.817,2.212,-8.449,2.713,-0.501,0.234,-0.622,0.011
'0:02.016',-331.717,1424.183,-30.64,-56.969,76.327,2.451,-8.543,2.816,2.423,-8.491,2.726,-0.505,0.216,-0.668,0.015
'0:02.020',-604.313,1457.865,-31.795,-56.382,78.225,2.487,-8.639,2.851,2.337,-8.616,2.684,-0.501,0.216,-0.634,0.019
'0:02.023',-890.597,1425.631,-33.139,-55.762,80.253,2.535,-8.712,2.875,2.375,-8.722,2.782,-0.489,0.216,-0.655,0.023
'0:02.027',-1006.818,1429.303,-34.827,-54.737,82.115,2.559,-8.797,2.886,2.403,-8.77,2.841,-0.485,0.208,-0.72,0.027
'0:02.031',-991.174,1410.272,-35.651,-53.57,83.555,2.595,-8.882,2.897,2.432,-8.878,2.791,-0.485,0.208,-0.72,0.031
'0:02.035',-878.212,1452.746,-36.889,-52.363,84.725,2.631,-8.93,2.921,2.48,-8.919,2.753,-0.466,0.202,-0.701,0.034
'0:02.039',-670.082,1423.442,-37.761,-50.961,86.181,2.655,-8.99,2.944,2.518,-8.947,2.822,-0.466,0.188,-0.756,0.038
'0:02.043',-480.53,1418.322,-38.911,-49.026,87.112,2.704,-8.991,2.969,2.595,-9.015,2.871,-0.452,0.19,-0.724,0.042
'0:02.047',-308.577,1406.601,-39.654,-47.05,87.897,2.728,-9.015,3.005,2.624,-9.007,2.842,-0.464,0.185,-0.737,0.046
'0:02.051',-151.094,1409.531,-40.517,-44.973,88.912,2.74,-9.015,3.005,2.653,-9.017,2.833,-0.477,0.193,-0.678,0.05
'0:02.055',-18.447,1408.049,-41.98,-39.957,89.099,2.777,-9.028,3.006,2.672,-9.017,2.843,-0.457,0.195,-0.72,0.054
'0:02.059',45.172,1451.297,-43.065,-37.462,90.279,2.789,-9.028,2.994,2.711,-9.009,2.815,-0.457,0.195,-0.72,0.058
'0:02.063',61.077,1445.437,-43.645,-34.954,91.423,2.826,-9.029,2.994,2.71,-9.045,2.941,-0.471,0.181,-0.718,0.062
'0:02.066',105.531,1442.506,-44.325,-32.398,89.848,2.838,-9.005,3.007,2.758,-9.047,2.893,-0.456,0.183,-0.693,0.066
'0:02.070',144.902,1429.303,-45.009,-29.742,91.496,2.851,-8.982,2.996,2.797,-9.008,2.914,-0.445,0.178,-0.739,0.07
'0:02.074',128.737,1445.437,-45.348,-27.274,89.27,2.888,-8.958,2.996,2.816,-8.988,2.953,-0.445,0.169,-0.741,0.074
'0:02.078',128.476,1461.537,-46.218,-24.388,90.966,2.888,-8.922,3.021,2.835,-8.97,2.895,-0.443,0.165,-0.71,0.077
'0:02.082',142.751,1505.492,-46.359,-22.015,89.874,2.876,-8.885,3.034,2.844,-8.93,2.964,-0.443,0.165,-0.718,0.081
'0:02.086',167.521,1487.91,-46.659,-19.385,88.625,2.852,-8.873,3.022,2.816,-8.883,2.895,-0.429,0.172,-0.718,0.085
'0:02.090',175.343,1531.124,-47.119,-16.958,88.064,2.827,-8.861,2.997,2.758,-8.862,2.914,-0.431,0.158,-0.751,0.089
'0:02.094',146.792,1503.303,-47.381,-14.213,88.137,2.84,-8.837,2.998,2.729,-8.832,2.933,-0.422,0.144,-0.774,0.093
'0:02.098',116.091,1546.517,-47.547,-11.779,86.644,2.828,-8.825,2.974,2.729,-8.813,2.904,-0.393,0.153,-0.781,0.097
'0:02.102',81.283,1539.915,-47.501,-9.278,85.781,2.816,-8.813,2.95,2.758,-8.833,2.895,-0.414,0.144,-0.768,0.101
'0:02.105',71.832,1597.074,-47.902,-7.14,84.985,2.804,-8.801,2.95,2.758,-8.833,2.914,-0.408,0.146,-0.743,0.105
'0:02.109',92.886,1577.302,-48.235,-4.774,84.346,2.804,-8.754,2.926,2.759,-8.785,2.866,-0.408,0.146,-0.743,0.109
'0:02.113',109.312,1608.054,-47.915,-2.34,83.201,2.792,-8.741,2.939,2.73,-8.804,2.856,-0.382,0.147,-0.793,0.113
'0:02.117',110.942,1641.029,-48.204,0.135,82.047,2.804,-8.742,2.914,2.73,-8.814,2.855,-0.386,0.133,-0.781,0.117
'0:02.121',127.368,1645.408,-48.202,2.522,80.83,2.767,-8.789,2.913,2.739,-8.824,2.865,-0.396,0.137,-0.76,0.12
'0:02.125',120.915,1637.358,-48.265,4.443,79.452,2.767,-8.825,2.912,2.692,-8.814,2.816,-0.37,0.119,-0.854,0.124
'0:02.129',158.395,1653.491,-48.153,6.884,78.204,2.779,-8.849,2.9,2.682,-8.833,2.825,-0.354,0.123,-0.825,0.128
'0:02.133',156.765,1662.99,-48.033,8.867,76.789,2.754,-8.897,2.899,2.701,-8.9,2.903,-0.365,0.117,-0.831,0.132
'0:02.137',172.67,1712.098,-47.697,10.97,75.338,2.753,-8.957,2.898,2.73,-8.95,2.854,-0.365,0.117,-0.831,0.136
'0:02.141',173.778,1711.357,-47.419,12.757,74.127,2.765,-9.018,2.897,2.682,-9.009,2.785,-0.366,0.119,-0.8,0.14
'0:02.145',185.316,1733.318,-46.967,14.375,72.821,2.739,-9.089,2.895,2.701,-9.047,2.834,-0.352,0.133,-0.852,0.144
'0:02.148',191.573,1741.402,-46.556,15.522,71.105,2.702,-9.125,2.882,2.691,-9.094,2.882,-0.346,0.107,-0.833,0.148
'0:02.152',205.327,1733.318,-46.199,16.412,69.873,2.665,-9.172,2.856,2.662,-9.182,2.842,-0.358,0.124,-0.787,0.152
'0:02.156',218.233,1729.68,-46.03,17.295,68.12,2.603,-9.206,2.879,2.595,-9.24,2.801,-0.337,0.121,-0.827,0.156
'0:02.160',233.877,1760.432,-45.361,17.504,66.727,2.591,-9.219,2.854,2.518,-9.257,2.858,-0.337,0.121,-0.827,0.159
'0:02.164',232.247,1761.173,-44.825,17.733,64.958,2.542,-9.254,2.853,2.489,-9.228,2.819,-0.344,0.114,-0.829,0.163
'0:02.168',257.343,1753.831,-44.259,17.49,63.232,2.517,-9.277,2.84,2.441,-9.256,2.827,-0.342,0.117,-0.8,0.167
'0:02.172',254.084,1729.68,-43.557,16.904,61.495,2.492,-9.277,2.816,2.442,-9.316,2.739,-0.326,0.11,-0.846,0.171
'0:02.176',264.578,1726.75,-43.063,16,59.67,2.455,-9.301,2.778,2.442,-9.286,2.769,-0.316,0.094,-0.854,0.175
'0:02.180',278.918,1725.268,-42.596,14.834,57.787,2.468,-9.29,2.767,2.433,-9.259,2.691,-0.314,0.101,-0.862,0.179
'0:02.184',293.715,1722.338,-42.174,13.317,55.878,2.443,-9.29,2.73,2.442,-9.278,2.7,-0.291,0.1,-0.869,0.183
'0:02.188',305.057,1758.243,-41.554,12.009,53.996,2.419,-9.277,2.718,2.414,-9.27,2.593,-0.291,0.1,-0.869,0.187
'0:02.191',303.427,1720.889,-41.216,10.37,52.217,2.419,-9.278,2.694,2.385,-9.298,2.621,-0.297,0.094,-0.894,0.191
'0:02.195',281.07,1720.889,-40.678,8.88,50.688,2.419,-9.242,2.67,2.385,-9.268,2.641,-0.305,0.092,-0.871,0.195
'0:02.199',278.071,1749.452,-40.469,7.134,48.79,2.456,-9.243,2.671,2.376,-9.23,2.612,-0.3,0.101,-0.818,0.199
'0:02.203',260.537,1739.179,-39.939,5.596,46.866,2.481,-9.256,2.647,2.376,-9.25,2.582,-0.307,0.091,-0.862,0.202
'0:02.207',272.4,1715.029,-39.614,4.234,45.067,2.517,-9.269,2.647,2.424,-9.241,2.603,-0.309,0.091,-0.827,0.206
'0:02.211',285.632,1739.179,-39.131,3.088,43.413,2.553,-9.306,2.635,2.539,-9.291,2.604,-0.309,0.091,-0.831,0.21
'0:02.215',323.634,1733.318,-38.599,2.185,41.759,2.626,-9.355,2.659,2.501,-9.301,2.574,-0.291,0.098,-0.831,0.214
'0:02.219',366.525,1701.084,-38.479,1.301,40.064,2.687,-9.393,2.671,2.577,-9.359,2.624,-0.29,0.091,-0.852,0.218
'0:02.223',399.377,1694.516,-38.014,0.836,38.769,2.76,-9.43,2.672,2.616,-9.41,2.575,-0.295,0.087,-0.837,0.222
'0:02.227',447.678,1692.293,-37.826,0.519,37.251,2.833,-9.456,2.684,2.731,-9.469,2.596,-0.288,0.078,-0.846,0.226
'0:02.230',432.034,1676.934,-37.613,0.27,35.82,2.881,-9.553,2.695,2.78,-9.548,2.577,-0.272,0.075,-0.908,0.23
'0:02.234',392.663,1704.756,-37.153,-0.034,34.65,2.918,-9.577,2.707,2.818,-9.589,2.519,-0.269,0.082,-0.852,0.234
'0:02.238',370.566,1701.825,-36.818,-0.013,33.215,2.954,-9.626,2.731,2.865,-9.606,2.666,-0.269,0.082,-0.852,0.238
'0:02.242',351.402,1676.193,-36.353,-0.229,31.931,3.003,-9.639,2.756,2.904,-9.618,2.598,-0.281,0.068,-0.885,0.242
'0:02.246',348.73,1652.009,-36.149,-0.297,30.672,3.015,-9.639,2.756,2.942,-9.666,2.647,-0.255,0.069,-0.852,0.245
'0:02.250',348.73,1676.934,-35.085,-0.121,27.916,3.076,-9.664,2.769,2.99,-9.666,2.697,-0.262,0.077,-0.902,0.249
'0:02.254',355.965,1668.85,-34.559,0.04,26.626,3.125,-9.665,2.757,3.048,-9.706,2.698,-0.279,0.073,-0.843,0.253
'0:02.258',365.156,1642.477,-33.842,0.317,24.905,3.149,-9.69,2.769,3.086,-9.706,2.708,-0.262,0.073,-0.885,0.257
'0:02.262',364.113,1613.915,-33.477,0.634,23.48,3.21,-9.704,2.746,3.143,-9.736,2.738,-0.276,0.059,-0.869,0.261
'0:02.266',349.251,1601.452,-32.972,1.119,22.065,3.259,-9.729,2.722,3.212,-9.71,2.632,-0.276,0.059,-0.869,0.265
'0:02.270',381.582,1589.024,-32.441,1.935,20.661,3.308,-9.754,2.722,3.212,-9.729,2.642,-0.274,0.068,-0.85,0.269
'0:02.273',399.963,1580.94,-31.797,2.542,19.2,3.344,-9.78,2.685,3.308,-9.79,2.614,-0.263,0.061,-0.869,0.273
'0:02.277',422.321,1575.82,-31.693,3.392,17.817,3.381,-9.806,2.625,3.356,-9.829,2.614,-0.27,0.062,-0.871,0.277
'0:02.281',439.856,1581.681,-31.162,4.18,16.413,3.393,-9.843,2.612,3.395,-9.86,2.585,-0.265,0.064,-0.843,0.281
'0:02.285',445.526,1553.859,-30.957,5.293,15.149,3.429,-9.916,2.575,3.385,-9.917,2.604,-0.262,0.061,-0.848,0.284
'0:02.289',463.321,1544.327,-30.796,6.419,13.854,3.452,-10.049,2.549,3.366,-9.947,2.555,-0.262,0.061,-0.848,0.288
'0:02.293',463.582,1526.004,-30.305,7.727,12.341,3.475,-10.195,2.51,3.385,-10.131,2.583,-0.246,0.059,-0.921,0.292
'0:02.297',467.363,1528.935,-30.039,8.941,11.394,3.521,-10.401,2.483,3.433,-10.317,2.553,-0.258,0.045,-0.894,0.296
'0:02.301',453.609,1519.403,-29.897,10.431,10.416,3.544,-10.57,2.48,3.472,-10.455,2.484,-0.258,0.05,-0.866,0.3
'0:02.305',430.404,1498.183,-29.731,11.537,9.584,3.591,-10.775,2.502,3.539,-10.67,2.493,-0.26,0.045,-0.864,0.304
'0:02.309',417.758,1476.188,-29.095,12.926,8.846,3.638,-10.944,2.499,3.529,-10.747,2.512,-0.248,0.055,-0.892,0.308
'0:02.313',399.116,1440.283,-28.946,14.24,8.029,3.673,-11.089,2.521,3.577,-10.971,2.501,-0.258,0.039,-0.887,0.312
'0:02.316',367.567,1424.183,-28.724,15.481,7.608,3.721,-11.186,2.52,3.606,-11.078,2.54,-0.258,0.039,-0.887,0.316
'0:02.320',338.235,1406.601,-28.281,17.241,7.005,3.744,-11.282,2.543,3.653,-11.205,2.549,-0.251,0.052,-0.879,0.32
'0:02.324',317.442,1415.392,-27.81,18.421,6.49,3.78,-11.367,2.542,3.643,-11.408,2.577,-0.246,0.039,-0.908,0.324
'0:02.328',289.413,1398.551,-27.152,20.059,5.902,3.791,-11.438,2.601,3.72,-11.419,2.559,-0.263,0.036,-0.864,0.327
'0:02.332',269.988,1386.83,-26.4,21.806,5.544,3.815,-11.547,2.588,3.692,-11.487,2.548,-0.256,0.045,-0.877,0.331
'0:02.336',267.055,1390.467,-25.672,23.296,5.065,3.814,-11.631,2.598,3.72,-11.604,2.538,-0.246,0.039,-0.864,0.335
'0:02.340',252.193,1357.526,-24.748,25.035,4.332,3.813,-11.728,2.584,3.74,-11.693,2.459,-0.246,0.039,-0.898,0.339
'0:02.344',265.426,1361.164,-23.939,26.323,3.791,3.799,-11.861,2.521,3.749,-11.809,2.517,-0.249,0.034,-0.898,0.343
'0:02.348',256.756,1345.805,-22.99,27.544,2.902,3.798,-11.933,2.484,3.75,-11.887,2.467,-0.244,0.041,-0.871,0.347
'0:02.352',238.44,1308.418,-22.118,28.697,2.007,3.785,-12.078,2.432,3.702,-12.013,2.427,-0.262,0.038,-0.879,0.351
'0:02.355',234.398,1298.885,-21.13,29.452,0.967,3.759,-12.211,2.381,3.682,-12.1,2.426,-0.255,0.041,-0.846,0.355
'0:02.359',248.152,1319.398,-20.257,30.268,0.016,3.721,-12.319,2.33,3.683,-12.237,2.366,-0.256,0.027,-0.866,0.359
'0:02.363',260.863,1334.083,-19.575,31.097,-1.019,3.695,-12.488,2.267,3.673,-12.355,2.316,-0.242,0.039,-0.927,0.363
'0:02.367',286.415,1331.86,-18.716,31.697,-2.226,3.681,-12.633,2.215,3.654,-12.52,2.305,-0.242,0.039,-0.927,0.367
'0:02.371',301.537,1315.76,-17.621,32.129,-3.88,3.667,-12.777,2.2,3.625,-12.714,2.273,-0.258,0.03,-0.892,0.37
'0:02.375',327.936,1304.746,-16.603,32.702,-5.226,3.678,-12.886,2.174,3.606,-12.801,2.292,-0.253,0.043,-0.862,0.374
'0:02.379',356.291,1326.741,-15.183,33.133,-6.948,3.677,-12.934,2.161,3.644,-12.899,2.243,-0.253,0.036,-0.858,0.378
'0:02.383',370.305,1342.133,-13.98,33.43,-8.586,3.665,-12.934,2.137,3.635,-12.938,2.242,-0.246,0.041,-0.837,0.382
'0:02.387',399.116,1358.974,-12.327,33.848,-10.682,3.629,-12.91,2.125,3.635,-12.948,2.223,-0.249,0.034,-0.877,0.386
'0:02.391',414.239,1367.765,-10.892,34.623,-12.684,3.593,-12.814,2.078,3.606,-12.803,2.194,-0.241,0.041,-0.917,0.39
'0:02.395',422.582,1372.178,-8.94,35.217,-15.185,3.558,-12.621,2.044,3.568,-12.715,2.175,-0.241,0.041,-0.917,0.394
'0:02.398',433.924,1379.487,-7.463,35.567,-17.702,3.488,-12.404,1.987,3.57,-12.427,2.011,-0.258,0.029,-0.896,0.398
'0:02.402',448.46,1378.746,-5.842,36.707,-20.911,3.417,-12.14,1.906,3.552,-12.322,1.904,-0.258,0.041,-0.866,0.402
'0:02.406',462.213,1406.601,-4.122,37.462,-24.239,3.346,-11.875,1.849,3.389,-11.961,1.846,-0.276,0.045,-0.875,0.406
'0:02.410',462.213,1391.949,-2.499,38.413,-27.786,3.276,-11.586,1.793,3.341,-11.795,1.846,-0.274,0.041,-0.848,0.409
'0:02.414',454.131,1397.069,-0.701,39.235,-31.442,3.218,-11.333,1.748,3.246,-11.435,1.799,-0.263,0.048,-0.862,0.413
'0:02.418',432.816,1419.771,0.715,40.658,-35.389,3.111,-11.056,1.679,3.121,-11.113,1.77,-0.263,0.048,-0.862,0.417
'0:02.422',415.868,1461.537,2.341,41.501,-39.544,3.016,-10.778,1.634,3.092,-10.928,1.751,-0.267,0.054,-0.866,0.421
'0:02.426',413.978,1460.088,4.006,42.856,-43.314,2.908,-10.536,1.589,2.988,-10.617,1.674,-0.284,0.046,-0.858,0.425
'0:02.430',396.965,1452.746,5.58,44.279,-47.355,2.826,-10.259,1.532,2.94,-10.413,1.636,-0.281,0.045,-0.854,0.429
'0:02.434',371.609,1503.303,7.19,45.836,-51.505,2.743,-10.017,1.499,2.826,-10.112,1.548,-0.288,0.054,-0.871,0.433
'0:02.438',365.416,1497.442,8.687,47.32,-55.52,2.66,-9.788,1.453,2.731,-9.822,1.393,-0.274,0.055,-0.848,0.437
'0:02.441',348.469,1522.333,11.378,50.212,-63.643,2.601,-9.571,1.396,2.683,-9.667,1.364,-0.284,0.055,-0.877,0.441
'0:02.445',332.564,1542.845,12.633,52.046,-67.746,2.529,-9.402,1.338,2.588,-9.443,1.286,-0.284,0.055,-0.877,0.445
'0:02.449',317.181,1539.915,13.953,53.86,-71.589,2.506,-9.271,1.267,2.54,-9.375,1.286,-0.281,0.062,-0.85,0.449
'0:02.453',305.839,1580.94,15.151,55.91,-75.484,2.446,-9.175,1.195,2.483,-9.211,1.149,-0.309,0.066,-0.852,0.452
'0:02.457',312.618,1583.163,16.029,57.778,-79.072,2.447,-9.103,1.148,2.445,-9.211,1.11,-0.307,0.075,-0.823,0.456
'0:02.461',357.594,1578.751,17.023,59.564,-82.541,2.435,-9.068,1.1,2.456,-9.116,1.042,-0.312,0.073,-0.841,0.46
'0:02.465',374.868,1602.193,17.969,60.98,-85.682,2.398,-9.068,1.039,2.408,-9.086,1.003,-0.312,0.08,-0.892,0.464
'0:02.469',410.719,1590.472,18.959,62.376,-88.516,2.386,-9.117,1.014,2.389,-9.077,0.993,-0.312,0.08,-0.856,0.468
'0:02.473',463.582,1613.915,19.615,63.704,-91.392,2.361,-9.152,1.001,2.379,-9.136,0.933,-0.326,0.068,-0.856,0.472
'0:02.477',515.077,1575.079,20.653,64.851,-93.992,2.335,-9.236,1.023,2.34,-9.192,0.991,-0.328,0.084,-0.818,0.476
'0:02.480',622.107,1567.77,21.721,66.267,-95.979,2.31,-9.342,1.057,2.283,-9.329,0.891,-0.325,0.085,-0.82,0.48
'0:02.484',580.847,1560.427,23.074,67.17,-98.137,2.284,-9.426,1.043,2.292,-9.444,0.978,-0.359,0.091,-0.795,0.484
'0:02.488',501.584,1509.163,23.876,67.683,-99.723,2.246,-9.57,1.016,2.254,-9.482,0.987,-0.342,0.101,-0.793,0.488
'0:02.492',400.485,1521.626,24.813,67.71,-100.971,2.22,-9.691,0.953,2.196,-9.619,0.907,-0.34,0.1,-0.802,0.492
'0:02.496',331.456,1469.587,25.655,67.824,-101.892,2.182,-9.799,0.938,2.167,-9.735,0.905,-0.34,0.1,-0.802,0.495
'0:02.500',266.469,1416.133,26.647,67.528,-102.734,2.169,-9.883,0.9,2.167,-9.871,0.885,-0.363,0.092,-0.829,0.499
'0:02.504',221.492,1380.969,27.101,66.725,-103.207,2.119,-9.967,0.862,2.1,-9.929,0.854,-0.37,0.101,-0.787,0.503
'0:02.508',190.204,1361.164,27.992,65.828,-103.613,2.082,-10.063,0.811,2.11,-10.036,0.843,-0.384,0.116,-0.8,0.507
'0:02.512',185.902,1290.094,28.175,64.723,-103.582,2.08,-10.16,0.749,2.043,-10.085,0.744,-0.375,0.119,-0.77,0.511
'0:02.516',180.753,1254.93,28.639,63.273,-103.728,2.08,-10.209,0.712,2.015,-10.144,0.704,-0.382,0.117,-0.806,0.515
'0:02.520',181.013,1183.895,28.895,61.621,-103.046,2.104,-10.295,0.65,2.063,-10.272,0.636,-0.4,0.139,-0.785,0.519
'0:02.523',185.902,1134.786,29.222,60.252,-102.292,2.139,-10.381,0.6,2.044,-10.369,0.635,-0.4,0.139,-0.785,0.523
'0:02.527',234.659,1105.482,29.323,58.85,-101.356,2.175,-10.455,0.551,2.083,-10.438,0.576,-0.417,0.123,-0.768,0.527
'0:02.531',276.767,1024.915,29.427,57.373,-100.108,2.248,-10.541,0.539,2.141,-10.529,0.469,-0.415,0.135,-0.758,0.531
'0:02.535',319.853,986.82,28.967,55.33,-98.657,2.321,-10.616,0.49,2.16,-10.548,0.528,-0.422,0.137,-0.762,0.534
'0:02.539',339.278,917.94,28.861,53.88,-96.925,2.381,-10.689,0.477,2.257,-10.648,0.451,-0.417,0.142,-0.728,0.538
'0:02.543',332.303,900.358,28.378,52.491,-95.038,2.491,-10.739,0.49,2.323,-10.695,0.549,-0.428,0.147,-0.766,0.542
'0:02.547',334.976,830.771,27.943,51.278,-92.879,2.588,-10.826,0.49,2.429,-10.766,0.501,-0.428,0.147,-0.766,0.546
'0:02.551',312.292,821.98,27.612,50.368,-90.357,2.661,-10.827,0.503,2.487,-10.787,0.483,-0.443,0.149,-0.728,0.55
'0:02.555',258.386,772.905,27.067,50.078,-87.882,2.735,-10.841,0.516,2.564,-10.817,0.513,-0.431,0.158,-0.783,0.554
'0:02.559',229.314,748.721,26.573,49.713,-85.49,2.808,-10.842,0.541,2.698,-10.838,0.535,-0.447,0.156,-0.745,0.558
'0:02.563',187.793,727.467,26.223,49.74,-82.9,2.906,-10.808,0.555,2.737,-10.8,0.545,-0.45,0.165,-0.703,0.562
'0:02.566',141.643,692.303,25.792,50.064,-80.528,2.98,-10.821,0.58,2.852,-10.772,0.567,-0.447,0.167,-0.701,0.566
'0:02.570',119.285,710.626,25.313,50.63,-78.147,3.054,-10.774,0.63,2.891,-10.763,0.548,-0.452,0.179,-0.733,0.57
'0:02.574',80.501,689.373,24.959,51.716,-75.775,3.115,-10.739,0.644,2.967,-10.754,0.618,-0.452,0.179,-0.733,0.574
'0:02.578',34.938,694.493,24.779,52.896,-73.529,3.189,-10.68,0.682,3.015,-10.704,0.697,-0.471,0.174,-0.714,0.577
'0:02.582',-5.019,692.303,24.482,54.703,-71.662,3.263,-10.633,0.696,3.062,-10.685,0.767,-0.452,0.186,-0.699,0.581
'0:02.586',-49.995,711.367,24.22,56.888,-69.613,3.313,-10.586,0.734,3.207,-10.571,0.741,-0.478,0.188,-0.67,0.585
'0:02.590',-73.201,731.139,23.967,59.43,-67.735,3.338,-10.55,0.759,3.216,-10.562,0.741,-0.475,0.19,-0.687,0.589
'0:02.594',-128.476,717.935,23.895,62.423,-66.071,3.338,-10.514,0.736,3.246,-10.524,0.673,-0.482,0.201,-0.693,0.593
'0:02.598',-158.134,757.512,23.475,65.255,-63.924,3.351,-10.468,0.664,3.236,-10.505,0.683,-0.482,0.201,-0.703,0.597
'0:02.602',-213.084,797.055,23.448,68.303,-61.947,3.314,-10.456,0.567,3.208,-10.437,0.615,-0.471,0.204,-0.703,0.601
'0:02.605',-256.821,821.98,22.909,71.061,-60.736,3.266,-10.421,0.494,3.199,-10.41,0.508,-0.47,0.195,-0.749,0.605
'0:02.609',-310.989,843.233,22.726,73.616,-59.581,3.254,-10.397,0.458,3.209,-10.401,0.498,-0.454,0.201,-0.737,0.609
'0:02.613',-366.785,860.074,22.34,76.468,-58.047,3.241,-10.434,0.409,3.161,-10.352,0.468,-0.496,0.216,-0.657,0.613
'0:02.617',-398.595,866.676,21.85,79.651,-56.887,3.18,-10.433,0.36,3.142,-10.362,0.429,-0.473,0.218,-0.728,0.617
'0:02.621',-439.008,923.801,21.493,82.881,-55.634,3.119,-10.433,0.311,3.076,-10.373,0.301,-0.475,0.229,-0.641,0.62
'0:02.625',-465.994,970.686,21.05,85.982,-54.474,3.046,-10.432,0.261,3.018,-10.402,0.28,-0.475,0.229,-0.641,0.624
'0:02.629',-455.499,973.617,20.579,89.596,-53.377,2.985,-10.371,0.249,2.98,-10.382,0.25,-0.478,0.245,-0.697,0.628
'0:02.633',-464.625,989.01,20.016,96.062,-51.677,2.912,-10.297,0.238,2.874,-10.264,0.24,-0.489,0.24,-0.651,0.632
'0:02.637',-448.72,1020.502,19.716,98.834,-50.943,2.84,-10.199,0.25,2.826,-10.213,0.308,-0.489,0.257,-0.647,0.636
'0:02.641',-424.472,1087.193,19.184,101.632,-50.402,2.73,-10.125,0.25,2.692,-10.116,0.208,-0.48,0.254,-0.624,0.64
'0:02.645',-371.348,1093.054,19.239,103.877,-50.002,2.646,-9.99,0.264,2.605,-10.075,0.237,-0.494,0.268,-0.609,0.644
'0:02.648',-313.14,1131.148,19.372,106.25,-49.347,2.55,-9.856,0.277,2.529,-9.949,0.168,-0.468,0.257,-0.649,0.648
'0:02.652',-288.305,1155.298,19.161,108.489,-49.113,2.453,-9.745,0.277,2.452,-9.84,0.246,-0.468,0.257,-0.649,0.652
'0:02.656',-253.562,1213.905,19.469,110.539,-49.134,2.368,-9.659,0.29,2.433,-9.753,0.187,-0.471,0.273,-0.601,0.656
'0:02.660',-243.85,1227.85,19.467,112.407,-49.128,2.308,-9.561,0.291,2.308,-9.596,0.177,-0.478,0.284,-0.639,0.659
'0:02.664',-253.562,1264.462,19.811,113.937,-49.264,2.248,-9.439,0.316,2.299,-9.538,0.148,-0.482,0.28,-0.618,0.663
'0:02.668',-273.508,1286.457,19.921,115.373,-49.331,2.188,-9.33,0.293,2.241,-9.419,0.197,-0.468,0.293,-0.626,0.667
'0:02.672',-282.373,1340.651,20.398,116.58,-49.373,2.165,-9.233,0.307,2.135,-9.292,0.186,-0.468,0.294,-0.632,0.671
'0:02.676',-315.291,1361.164,20.662,117.497,-49.466,2.117,-9.123,0.332,2.039,-9.241,0.204,-0.468,0.294,-0.632,0.675
'0:02.680',-353.814,1383.158,20.983,118.367,-49.451,2.057,-9.038,0.333,2.048,-9.056,0.265,-0.471,0.307,-0.582,0.679
'0:02.684',-409.089,1400.74,21.544,118.778,-49.669,1.996,-8.928,0.358,2.02,-8.997,0.255,-0.464,0.305,-0.599,0.683
'0:02.688',-429.361,1422.701,22.088,119.115,-49.56,1.961,-8.819,0.36,1.971,-8.859,0.314,-0.468,0.317,-0.613,0.687
'0:02.691',-457.39,1491.581,22.464,119.419,-49.721,1.913,-8.686,0.349,1.952,-8.81,0.314,-0.478,0.312,-0.609,0.691
'0:02.695',-492.393,1487.169,23.116,119.095,-49.945,1.878,-8.588,0.375,1.884,-8.624,0.343,-0.449,0.33,-0.572,0.695
'0:02.699',-514.229,1528.935,23.511,118.906,-50.194,1.829,-8.515,0.376,1.808,-8.555,0.333,-0.463,0.328,-0.613,0.699
'0:02.703',-551.449,1526.004,23.806,118.434,-50.007,1.818,-8.419,0.377,1.817,-8.496,0.363,-0.463,0.328,-0.613,0.702
'0:02.707',-570.352,1582.422,24.273,117.504,-49.851,1.782,-8.37,0.377,1.759,-8.398,0.382,-0.47,0.339,-0.568,0.706
'0:02.711',-582.998,1564.84,24.969,116.459,-49.726,1.734,-8.309,0.366,1.741,-8.38,0.313,-0.463,0.348,-0.59,0.71
'0:02.715',-573.285,1597.074,25.016,115.286,-49.446,1.722,-8.284,0.378,1.712,-8.301,0.323,-0.466,0.353,-0.557,0.714
'0:02.719',-595.969,1616.104,25.195,114.031,-48.801,1.673,-8.259,0.378,1.606,-8.26,0.322,-0.468,0.36,-0.538,0.718
'0:02.723',-597.794,1613.174,25.341,112.305,-48.119,1.637,-8.21,0.366,1.616,-8.222,0.303,-0.449,0.356,-0.568,0.722
'0:02.727',-597.794,1636.617,25.706,110.37,-47.516,1.625,-8.198,0.378,1.635,-8.183,0.352,-0.449,0.356,-0.565,0.726
'0:02.730',-564.681,1634.427,25.579,108.577,-46.533,1.576,-8.173,0.366,1.568,-8.143,0.322,-0.463,0.362,-0.565,0.73
'0:02.734',-542.584,1638.099,25.55,106.136,-45.717,1.564,-8.197,0.365,1.539,-8.183,0.263,-0.45,0.364,-0.58,0.734
'0:02.738',-517.228,1672.522,25.436,103.843,-44.422,1.527,-8.196,0.365,1.501,-8.163,0.272,-0.459,0.365,-0.536,0.738
'0:02.742',-469.253,1670.332,25.343,101.025,-43.262,1.502,-8.195,0.377,1.442,-8.17,0.349,-0.443,0.378,-0.597,0.742
'0:02.746',-373.76,1662.99,24.995,98.112,-41.874,1.49,-8.207,0.388,1.404,-8.17,0.309,-0.452,0.369,-0.553,0.745
'0:02.750',-186.684,1639.547,24.756,94.869,-40.246,1.49,-8.242,0.412,1.375,-8.236,0.357,-0.44,0.383,-0.545,0.749
'0:02.754',143.533,1629.308,24.623,90.904,-38.603,1.453,-8.241,0.424,1.375,-8.265,0.386,-0.44,0.383,-0.545,0.753
'0:02.758',141.121,1614.656,24.201,89.603,-36.965,1.44,-8.276,0.459,1.327,-8.284,0.395,-0.442,0.385,-0.522,0.757
'0:02.762',46.476,1610.984,23.942,85.416,-34.947,1.428,-8.287,0.495,1.317,-8.302,0.424,-0.44,0.39,-0.511,0.761
'0:02.766',-58.078,1608.054,23.427,81.741,-33.319,1.403,-8.31,0.519,1.306,-8.252,0.493,-0.436,0.387,-0.536,0.765
'0:02.770',-171.04,1624.895,22.962,77.972,-31.187,1.415,-8.334,0.567,1.306,-8.31,0.502,-0.426,0.397,-0.536,0.769
'0:02.773',-281.07,1584.611,22.532,74.169,-29.419,1.378,-8.344,0.602,1.296,-8.28,0.57,-0.436,0.392,-0.549,0.773
'0:02.777',-344.949,1567.029,22.082,70.326,-27.266,1.378,-8.356,0.626,1.316,-8.28,0.561,-0.431,0.402,-0.517,0.777
'0:02.781',-381.908,1584.611,21.552,66.26,-25.326,1.378,-8.343,0.663,1.287,-8.328,0.56,-0.431,0.402,-0.517,0.781
'0:02.785',-418.019,1569.219,20.949,62.187,-23.168,1.39,-8.342,0.711,1.296,-8.348,0.57,-0.41,0.402,-0.528,0.784
'0:02.789',-488.613,1523.815,20.409,57.913,-21.041,1.402,-8.354,0.735,1.324,-8.317,0.658,-0.436,0.402,-0.503,0.788
'0:02.793',-546.365,1535.536,19.756,54.002,-19.132,1.427,-8.318,0.773,1.334,-8.317,0.668,-0.422,0.42,-0.515,0.792
'0:02.797',-584.888,1492.322,19.33,49.869,-16.823,1.415,-8.305,0.809,1.334,-8.298,0.688,-0.408,0.415,-0.524,0.796
'0:02.801',-565.724,1509.904,18.638,45.337,-14.717,1.439,-8.305,0.822,1.323,-8.285,0.825,-0.421,0.402,-0.555,0.8
'0:02.805',-553.339,1465.949,18.062,41.224,-12.803,1.452,-8.269,0.847,1.294,-8.293,0.873,-0.421,0.402,-0.555,0.804
'0:02.809',-551.71,1489.392,17.697,36.889,-10.817,1.477,-8.245,0.872,1.314,-8.286,0.776,-0.431,0.411,-0.511,0.808
'0:02.813',-540.955,1435.905,17.049,32.803,-8.659,1.501,-8.234,0.872,1.342,-8.227,0.845,-0.431,0.424,-0.526,0.812
'0:02.816',-550.667,1465.949,16.601,28.629,-6.854,1.539,-8.174,0.898,1.381,-8.217,0.865,-0.41,0.42,-0.515,0.816
'0:02.820',-535.284,1416.84,15.867,24.752,-4.805,1.588,-8.187,0.898,1.467,-8.17,0.867,-0.429,0.424,-0.494,0.82
'0:02.824',-505.104,1412.462,14.778,17.578,-0.692,1.649,-8.152,0.912,1.487,-8.152,0.819,-0.422,0.427,-0.54,0.824
'0:02.828',-499.433,1442.506,14.071,14.281,1.409,1.698,-8.153,0.925,1.563,-8.152,0.879,-0.428,0.42,-0.515,0.827
'0:02.832',-517.489,1431.492,13.836,11.402,3.515,1.76,-8.155,0.926,1.592,-8.182,0.869,-0.428,0.42,-0.515,0.831
'0:02.836',-513.447,1403.671,13.18,8.273,5.538,1.784,-8.167,0.914,1.64,-8.192,0.899,-0.417,0.424,-0.494,0.835
'0:02.840',-503.996,1391.208,12.593,5.853,7.655,1.869,-8.194,0.902,1.737,-8.204,0.842,-0.419,0.429,-0.503,0.839
'0:02.844',-490.503,1408.049,12.262,3.439,10.182,1.955,-8.22,0.903,1.765,-8.215,0.842,-0.405,0.422,-0.482,0.843
'0:02.848',-494.87,1434.423,11.551,1.295,12.361,2.003,-8.257,0.903,1.804,-8.177,0.824,-0.396,0.436,-0.519,0.847
'0:02.852',-525.05,1399.258,10.734,-0.674,14.785,2.052,-8.282,0.903,1.871,-8.226,0.864,-0.419,0.418,-0.503,0.851
'0:02.855',-524.202,1409.531,10.141,-2.454,17.047,2.088,-8.355,0.878,1.996,-8.326,0.826,-0.419,0.418,-0.526,0.855
'0:02.859',-505.886,1402.93,9.9,-4.207,19.569,2.125,-8.368,0.879,2.035,-8.374,0.856,-0.4,0.427,-0.526,0.859
'0:02.863',-478.379,1408.049,9.029,-5.657,21.878,2.149,-8.405,0.89,2.044,-8.344,0.915,-0.41,0.417,-0.534,0.863
'0:02.867',-492.393,1414.651,8.552,-7.134,23.979,2.173,-8.429,0.902,2.063,-8.462,0.865,-0.41,0.427,-0.511,0.867
'0:02.871',-485.158,1429.303,7.86,-8.347,26.101,2.185,-8.441,0.939,2.073,-8.471,0.894,-0.41,0.424,-0.53,0.87
'0:02.875',-471.926,1432.974,7.328,-9.757,28.327,2.197,-8.477,0.926,2.111,-8.491,0.914,-0.412,0.426,-0.496,0.874
'0:02.879',-444.158,1437.353,6.732,-11.139,30.339,2.172,-8.5,0.949,2.092,-8.529,0.914,-0.398,0.434,-0.488,0.878
'0:02.883',-402.115,1433.715,6.355,-12.636,32.274,2.16,-8.524,0.961,2.082,-8.499,0.953,-0.398,0.434,-0.488,0.882
'0:02.887',-363.526,1452.746,5.684,-14.213,33.98,2.111,-8.498,0.961,1.985,-8.546,0.951,-0.403,0.427,-0.519,0.886
'0:02.891',-351.924,1476.188,5.082,-16.027,35.846,2.074,-8.522,0.948,1.976,-8.547,0.922,-0.414,0.429,-0.492,0.89
'0:02.895',-322.591,1441.765,4.668,-18.171,37.006,2.025,-8.521,0.947,1.89,-8.545,0.91,-0.408,0.418,-0.519,0.894
'0:02.898',-299.125,1463.019,3.879,-20.208,38.66,1.976,-8.531,0.958,1.832,-8.515,0.929,-0.408,0.427,-0.524,0.898
'0:02.902',-274.551,1464.467,3.012,-22.257,39.731,1.951,-8.567,0.957,1.851,-8.593,0.919,-0.387,0.427,-0.496,0.902
'0:02.906',-233.616,1485.72,2.615,-24.705,40.88,1.914,-8.565,1.005,1.831,-8.611,0.977,-0.393,0.42,-0.542,0.906
'0:02.910',-219.602,1452.005,2.174,-26.971,41.993,1.876,-8.648,1.027,1.831,-8.621,0.987,-0.393,0.42,-0.542,0.909
'0:02.914',-191.247,1469.587,1.551,-29.277,43.361,1.851,-8.683,1.038,1.783,-8.658,1.005,-0.382,0.431,-0.519,0.913
'0:02.918',-170.78,1487.91,1.123,-31.792,44.235,1.838,-8.768,1.013,1.725,-8.716,0.984,-0.405,0.422,-0.53,0.917
'0:02.922',-147.314,1463.726,0.488,-34.711,45.004,1.826,-8.828,1.011,1.735,-8.804,0.935,-0.398,0.427,-0.507,0.921
'0:02.926',-120.132,1453.487,-0.072,-38.076,45.738,1.825,-8.888,0.998,1.726,-8.853,0.915,-0.393,0.426,-0.53,0.925
'0:02.930',-103.38,1489.392,-0.675,-40.921,46.741,1.824,-8.924,1.01,1.764,-8.903,0.886,-0.401,0.426,-0.538,0.929
'0:02.934',-107.422,1463.726,-1.294,-44.09,47.475,1.812,-8.971,1.045,1.754,-8.922,0.915,-0.401,0.426,-0.538,0.933
'0:02.938',-89.627,1446.144,-1.963,-46.929,48.291,1.787,-9.006,1.068,1.697,-8.94,0.933,-0.398,0.426,-0.519,0.937
'0:02.941',-68.899,1484.979,-2.446,-49.7,49.342,1.775,-8.993,1.08,1.764,-8.989,0.953,-0.394,0.424,-0.511,0.941
'0:02.945',-56.449,1460.088,-3.36,-52.566,49.841,1.762,-9.017,1.068,1.745,-9.028,0.933,-0.375,0.418,-0.597,0.945
'0:02.949',-36.503,1459.347,-4.012,-55.627,50.34,1.75,-9.04,1.091,1.715,-8.997,0.982,-0.396,0.408,-0.565,0.949
'0:02.953',-40.283,1459.347,-4.694,-58.614,50.808,1.749,-9.076,1.103,1.725,-9.085,1.001,-0.387,0.418,-0.54,0.952
'0:02.957',20.924,1443.955,-5.717,-61.601,51.375,1.822,-9.09,1.128,1.725,-9.094,0.991,-0.391,0.413,-0.542,0.956
'0:02.961',130.627,1481.308,-6.657,-64.79,52.113,1.858,-9.162,1.163,1.763,-9.173,1.01,-0.391,0.413,-0.542,0.96
'0:02.965',298.278,1459.347,-7.427,-67.42,52.789,1.919,-9.199,1.187,1.782,-9.182,1.021,-0.384,0.413,-0.574,0.964
'0:02.969',433.077,1461.537,-8.296,-70.292,53.632,1.98,-9.248,1.224,1.887,-9.221,1.11,-0.394,0.408,-0.557,0.968
'0:02.973',487.83,1452.005,-9.236,-72.928,54.636,2.053,-9.297,1.26,1.858,-9.259,1.158,-0.396,0.408,-0.555,0.972
'0:02.977',326.046,1480.601,-10.219,-75.066,55.327,2.138,-9.346,1.309,1.973,-9.319,1.169,-0.407,0.401,-0.536,0.976
'0:02.980',22.488,1461.537,-11.411,-76.583,56.492,2.223,-9.419,1.369,2.088,-9.387,1.268,-0.394,0.413,-0.536,0.98
'0:02.984',-207.478,1465.208,-12.361,-77.979,57.142,2.345,-9.456,1.431,2.154,-9.444,1.366,-0.394,0.413,-0.57,0.984
'0:02.988',-507.255,1486.461,-13.167,-79.084,58.203,2.442,-9.541,1.527,2.308,-9.514,1.398,-0.393,0.402,-0.57,0.988
'0:02.992',-774.701,1464.467,-14.187,-79.711,59.306,2.514,-9.625,1.612,2.356,-9.524,1.418,-0.407,0.399,-0.568,0.992
'0:02.996',-854.485,1499.631,-15.033,-80.177,60.294,2.587,-9.686,1.672,2.374,-9.667,1.564,-0.401,0.392,-0.599,0.995
'0:03.000',-760.948,1484.238,-15.863,-80.487,61.817,2.611,-9.745,1.732,2.479,-9.668,1.624,-0.38,0.39,-0.574,0.999
'0:03.004',-616.176,1475.447,-16.861,-80.325,62.785,2.66,-9.745,1.781,2.507,-9.696,1.702,-0.391,0.394,-0.63,1.003
'0:03.008',-454.652,1505.492,-17.737,-80.224,63.752,2.696,-9.782,1.817,2.594,-9.737,1.674,-0.41,0.392,-0.568,1.007
'0:03.012',-303.949,1480.601,-18.781,-80.042,64.979,2.745,-9.806,1.83,2.623,-9.776,1.694,-0.41,0.392,-0.568,1.011
'0:03.016',-119.285,1517.213,-20.955,-79.145,66.539,2.769,-9.855,1.841,2.699,-9.845,1.724,-0.405,0.383,-0.603,1.015
'0:03.020',24.965,1499.631,-22.004,-78.403,67.579,2.817,-9.904,1.829,2.689,-9.892,1.772,-0.408,0.381,-0.605,1.019
'0:03.023',81.023,1509.163,-23.391,-77.25,68.385,2.877,-9.99,1.816,2.746,-9.94,1.88,-0.41,0.378,-0.58,1.023
'0:03.027',122.805,1508.422,-24.587,-76.266,69.358,2.913,-10.099,1.815,2.843,-10.06,1.744,-0.396,0.374,-0.59,1.027
'0:03.031',159.764,1523.815,-26.039,-74.715,70.221,2.973,-10.232,1.837,2.872,-10.139,1.734,-0.393,0.372,-0.672,1.031
'0:03.035',190.465,1509.904,-27.487,-73.171,71.334,3.032,-10.401,1.859,2.891,-10.303,1.782,-0.408,0.355,-0.641,1.034
'0:03.039',202.068,1520.144,-28.994,-71.432,72.379,3.091,-10.57,1.917,2.929,-10.429,1.811,-0.408,0.355,-0.641,1.038
'0:03.043',211.519,1556.049,-30.579,-69.308,73.747,3.15,-10.81,1.986,3.005,-10.651,1.967,-0.394,0.362,-0.613,1.042
'0:03.047',222.274,1518.695,-32.238,-67.386,74.792,3.209,-11.002,2.069,3.071,-10.923,1.995,-0.384,0.358,-0.622,1.046
'0:03.051',225.273,1552.377,-33.563,-65.006,76.134,3.243,-11.231,2.113,3.11,-11.089,2.014,-0.387,0.351,-0.666,1.05
'0:03.055',237.397,1533.347,-34.893,-62.855,77.294,3.302,-11.434,2.219,3.185,-11.34,2.14,-0.398,0.342,-0.649,1.054
'0:03.059',231.987,1555.308,-36.664,-60.347,78.443,3.312,-11.613,2.313,3.185,-11.428,2.13,-0.393,0.342,-0.647,1.058
'0:03.063',242.481,1520.144,-38.13,-58.344,79.608,3.335,-11.78,2.432,3.29,-11.679,2.286,-0.393,0.342,-0.647,1.062
'0:03.066',238.961,1526.004,-39.266,-55.843,80.575,3.346,-11.825,2.576,3.317,-11.764,2.412,-0.403,0.342,-0.634,1.066
'0:03.070',241.699,1553.118,-40.418,-53.321,81.267,3.346,-11.858,2.721,3.297,-11.829,2.577,-0.389,0.342,-0.657,1.07
'0:03.074',267.055,1528.194,-41.381,-50.361,82.146,3.334,-11.819,2.903,3.276,-11.805,2.782,-0.386,0.333,-0.674,1.074
'0:03.078',275.138,1518.695,-41.988,-47.131,82.343,3.298,-11.744,3.013,3.246,-11.764,2.89,-0.391,0.326,-0.664,1.077
'0:03.082',272.139,1546.517,-42.166,-44.178,82.245,3.274,-11.657,3.135,3.216,-11.722,3.045,-0.386,0.316,-0.712,1.081
'0:03.086',272.987,1532.606,-42.63,-40.719,81.787,3.238,-11.546,3.245,3.216,-11.643,3.105,-0.358,0.316,-0.699,1.085
'0:03.090',291.043,1526.004,-42.529,-37.604,81.002,3.252,-11.448,3.332,3.205,-11.475,3.223,-0.358,0.316,-0.699,1.089
'0:03.094',296.713,1537.726,-42.484,-34.435,79.899,3.254,-11.278,3.456,3.233,-11.297,3.42,-0.366,0.302,-0.741,1.093
'0:03.098',303.427,1572.89,-41.934,-31.252,78.724,3.28,-11.12,3.544,3.242,-11.218,3.499,-0.379,0.312,-0.682,1.097
'0:03.102',302.319,1562.651,-41.364,-28.198,77.471,3.281,-10.974,3.631,3.26,-11.051,3.628,-0.379,0.312,-0.682,1.101
'0:03.105',320.962,1576.561,-40.828,-25.164,76.02,3.271,-10.78,3.731,3.26,-10.904,3.707,-0.368,0.307,-0.705,1.105
'0:03.109',323.113,1612.466,-39.979,-21.785,74.714,3.26,-10.61,3.807,3.25,-10.659,3.797,-0.365,0.302,-0.697,1.109
'0:03.113',342.798,1643.959,-38.994,-18.529,72.821,3.25,-10.464,3.882,3.249,-10.542,3.856,-0.365,0.302,-0.739,1.113
'0:03.117',363.265,1670.332,-37.411,-15.238,70.939,3.239,-10.318,3.993,3.229,-10.315,4.004,-0.346,0.298,-0.739,1.117
'0:03.121',393.771,1698.895,-35.9,-11.456,68.921,3.229,-10.147,4.081,3.238,-10.167,4.152,-0.332,0.277,-0.802,1.12
'0:03.125',383.733,1750.193,-34.302,-7.835,66.721,3.206,-9.966,4.12,3.209,-10.089,4.152,-0.354,0.284,-0.747,1.124
'0:03.129',389.99,1804.387,-32.888,-5.077,64.537,3.184,-9.786,4.099,3.171,-9.875,4.114,-0.346,0.294,-0.72,1.128
'0:03.133',407.785,1821.97,-31.233,-2.636,62.462,3.112,-9.615,4.101,3.142,-9.749,4.115,-0.349,0.287,-0.758,1.132
'0:03.137',407.785,1890.109,-29.317,-0.169,60.304,3.028,-9.422,4.091,3.094,-9.525,4.106,-0.349,0.286,-0.726,1.136
'0:03.141',390.773,1918.671,-27.481,2.286,58.245,2.957,-9.24,4.069,2.95,-9.289,4.086,-0.349,0.286,-0.726,1.14
'0:03.145',369.197,1937.735,-25.577,4.834,56.04,2.885,-9.059,4.023,2.864,-9.182,4.056,-0.33,0.291,-0.735,1.144
'0:03.148',375.976,2001.462,-23.912,7.39,53.731,2.777,-8.902,3.94,2.769,-8.939,3.968,-0.335,0.275,-0.756,1.148
'0:03.152',358.181,2020.526,-22.262,9.48,51.12,2.693,-8.782,3.832,2.692,-8.812,3.968,-0.335,0.278,-0.739,1.152
'0:03.156',355.704,2046.899,-20.219,11.321,48.863,2.596,-8.673,3.736,2.607,-8.696,3.821,-0.325,0.277,-0.764,1.156
'0:03.160',369.719,2063.74,-18.737,13.04,46.877,2.499,-8.589,3.627,2.521,-8.638,3.752,-0.328,0.273,-0.774,1.159
'0:03.164',350.098,2099.645,-17.099,14.712,44.49,2.426,-8.517,3.518,2.416,-8.591,3.594,-0.311,0.278,-0.795,1.163
'0:03.168',359.746,2109.885,-15.337,15.96,42.368,2.329,-8.493,3.396,2.311,-8.483,3.534,-0.311,0.278,-0.795,1.167
'0:03.172',373.76,2125.277,-13.927,17.524,40.293,2.231,-8.457,3.287,2.245,-8.465,3.397,-0.319,0.271,-0.802,1.171
'0:03.176',383.211,2105.506,-12.256,18.313,38.119,2.133,-8.481,3.2,2.169,-8.466,3.308,-0.291,0.278,-0.772,1.175
'0:03.180',396.444,2131.138,-10.867,18.718,36.153,2.06,-8.504,3.138,2.083,-8.466,3.208,-0.291,0.266,-0.804,1.179
'0:03.184',395.922,2107.695,-9.457,19.061,34.032,1.986,-8.516,3.076,1.988,-8.496,3.09,-0.318,0.268,-0.774,1.183
'0:03.188',408.568,2093.044,-8.227,18.589,32.175,1.912,-8.563,3.002,1.902,-8.554,3.01,-0.314,0.28,-0.791,1.187
'0:03.191',406.417,2076.91,-7.045,17.861,30.599,1.814,-8.61,2.927,1.825,-8.574,2.94,-0.314,0.28,-0.791,1.191
'0:03.195',413.13,2029.317,-5.798,17.032,28.696,1.715,-8.67,2.84,1.71,-8.66,2.888,-0.295,0.27,-0.789,1.195
'0:03.199',439.595,1988.999,-4.417,15.05,27.151,1.641,-8.705,2.802,1.691,-8.671,2.819,-0.298,0.271,-0.814,1.199
'0:03.203',439.334,1950.905,-3.396,13.35,25.466,1.592,-8.741,2.728,1.624,-8.71,2.759,-0.297,0.275,-0.787,1.202
'0:03.207',455.76,1901.089,-1.176,8.523,21.608,1.518,-8.764,2.702,1.586,-8.748,2.758,-0.288,0.277,-0.843,1.206
'0:03.211',470.818,1861.546,-0.198,5.414,20.172,1.469,-8.812,2.652,1.481,-8.796,2.688,-0.293,0.278,-0.777,1.21
'0:03.215',475.185,1835.914,1.064,2.326,18.534,1.407,-8.847,2.627,1.385,-8.835,2.598,-0.29,0.275,-0.777,1.214
'0:03.219',468.406,1745.039,1.992,-1.2,16.896,1.37,-8.907,2.577,1.337,-8.854,2.578,-0.29,0.275,-0.777,1.218
'0:03.223',454.391,1698.154,3.151,-5.185,14.899,1.37,-8.908,2.54,1.328,-8.904,2.489,-0.298,0.273,-0.802,1.222
'0:03.227',425.58,1645.408,3.951,-9.386,13.365,1.369,-8.969,2.491,1.348,-8.943,2.48,-0.298,0.271,-0.772,1.226
'0:03.230',424.472,1580.94,4.987,-13.458,11.971,1.381,-8.994,2.478,1.339,-8.993,2.401,-0.29,0.278,-0.777,1.23
'0:03.234',424.212,1536.985,5.987,-17.544,10.676,1.393,-9.03,2.466,1.377,-9.033,2.372,-0.274,0.271,-0.839,1.234
'0:03.238',429.296,1479.119,6.781,-21.597,8.95,1.405,-9.078,2.477,1.348,-9.061,2.4,-0.288,0.261,-0.829,1.238
'0:03.242',432.555,1444.696,7.499,-24.988,7.525,1.49,-9.092,2.503,1.415,-9.071,2.46,-0.288,0.261,-0.793,1.242
'0:03.246',424.212,1386.089,8.301,-28.346,5.934,1.564,-9.117,2.527,1.444,-9.092,2.412,-0.29,0.273,-0.793,1.245
'0:03.250',410.197,1327.482,8.693,-31.67,4.571,1.649,-9.155,2.54,1.607,-9.152,2.453,-0.297,0.27,-0.793,1.249
'0:03.254',392.924,1306.228,9.145,-34.637,2.995,1.722,-9.18,2.565,1.656,-9.144,2.434,-0.281,0.275,-0.823,1.253
'0:03.258',363.265,1290.835,9.609,-37.53,1.706,1.807,-9.206,2.59,1.703,-9.2,2.552,-0.295,0.266,-0.825,1.257
'0:03.262',318.55,1216.836,9.94,-39.809,0.64,1.88,-9.255,2.626,1.847,-9.241,2.564,-0.295,0.273,-0.806,1.261
'0:03.266',281.07,1231.487,10.105,-41.838,-0.426,1.941,-9.303,2.662,1.856,-9.289,2.593,-0.3,0.266,-0.791,1.265
'0:03.270',220.645,1197.064,10.493,-43.638,-1.435,2.002,-9.328,2.687,1.923,-9.339,2.633,-0.3,0.266,-0.791,1.269
'0:03.273',169.998,1171.432,10.339,-44.926,-2.538,2.05,-9.389,2.735,1.942,-9.388,2.623,-0.298,0.271,-0.783,1.273
'0:03.277',120.654,1151.661,10.639,-46.032,-3.864,2.099,-9.437,2.771,2.048,-9.418,2.634,-0.297,0.271,-0.81,1.277
'0:03.281',73.983,1112.825,10.546,-46.612,-4.992,2.183,-9.523,2.783,2.163,-9.496,2.704,-0.311,0.259,-0.8,1.281
'0:03.285',38.132,1120.875,10.624,-46.895,-5.897,2.281,-9.573,2.82,2.201,-9.536,2.704,-0.307,0.27,-0.772,1.284
'0:03.289',-19.033,1139.198,10.711,-47.043,-7.249,2.366,-9.634,2.856,2.287,-9.634,2.754,-0.291,0.261,-0.791,1.288
'0:03.293',-53.255,1134.079,10.975,-46.504,-8.477,2.475,-9.696,2.905,2.326,-9.663,2.793,-0.293,0.261,-0.789,1.292
'0:03.297',-89.627,1130.407,11.019,-45.479,-9.595,2.56,-9.781,2.929,2.45,-9.742,2.804,-0.293,0.261,-0.789,1.296
'0:03.301',-107.161,1126.736,11.141,-44.211,-10.77,2.645,-9.818,2.99,2.488,-9.789,2.922,-0.284,0.248,-0.866,1.3
'0:03.305',-140.861,1126.736,11.414,-42.431,-11.581,2.718,-9.867,3.026,2.594,-9.859,2.933,-0.305,0.264,-0.791,1.304
'0:03.309',-146.532,1133.338,11.677,-40.179,-12.803,2.804,-9.88,3.075,2.689,-9.897,3.061,-0.298,0.254,-0.785,1.308
'0:03.313',-164.848,1137.009,11.92,-37.9,-13.916,2.816,-9.879,3.136,2.756,-9.879,3.043,-0.276,0.255,-0.808,1.312
'0:03.316',-171.627,1143.577,12.49,-35.54,-15.445,2.853,-9.88,3.173,2.784,-9.897,3.141,-0.305,0.259,-0.772,1.316
'0:03.320',-189.683,1150.179,12.929,-32.607,-16.818,2.853,-9.842,3.234,2.784,-9.877,3.151,-0.305,0.259,-0.772,1.32
'0:03.324',-189.422,1135.527,13.63,-29.749,-17.947,2.854,-9.745,3.296,2.774,-9.798,3.219,-0.316,0.254,-0.802,1.324
'0:03.328',-177.559,1163.382,14.444,-27.139,-20.068,2.806,-9.671,3.321,2.755,-9.691,3.21,-0.323,0.255,-0.766,1.327
'0:03.332',-164.848,1159.711,15.333,-24.193,-21.556,2.746,-9.586,3.334,2.726,-9.661,3.249,-0.314,0.264,-0.768,1.331
'0:03.336',-141.643,1180.964,16.067,-21.738,-23.584,2.661,-9.499,3.359,2.61,-9.561,3.287,-0.321,0.257,-0.804,1.335
'0:03.340',-112.832,1190.463,16.994,-19.399,-25.799,2.576,-9.376,3.384,2.553,-9.482,3.306,-0.314,0.257,-0.812,1.339
'0:03.344',-79.393,1178.741,18.163,-17.14,-27.973,2.455,-9.266,3.384,2.457,-9.306,3.276,-0.325,0.254,-0.8,1.343
'0:03.348',-63.749,1186.084,19.098,-15.124,-30.308,2.346,-9.143,3.361,2.38,-9.286,3.266,-0.325,0.254,-0.8,1.347
'0:03.352',-64.01,1199.995,20.06,-13.701,-32.617,2.238,-9.01,3.289,2.265,-9.11,3.236,-0.305,0.259,-0.762,1.351
'0:03.355',-57.817,1241.019,20.691,-12.487,-34.739,2.116,-8.889,3.205,2.102,-8.915,3.137,-0.325,0.248,-0.802,1.355
'0:03.359',-48.692,1238.089,21.685,-11.577,-37.365,2.032,-8.78,3.109,2.064,-8.836,3.127,-0.335,0.27,-0.758,1.359
'0:03.363',-48.366,1268.875,22.335,-10.822,-39.539,1.923,-8.648,3.001,1.969,-8.73,3.009,-0.325,0.266,-0.783,1.363
'0:03.367',-15.253,1286.457,23.171,-10.053,-41.759,1.888,-8.565,2.905,1.912,-8.673,2.921,-0.342,0.261,-0.77,1.367
'0:03.371',16.035,1289.387,23.604,-9.345,-43.866,1.827,-8.481,2.821,1.845,-8.546,2.891,-0.342,0.261,-0.76,1.37
'0:03.375',51.625,1279.855,24.359,-8.671,-45.998,1.792,-8.397,2.749,1.807,-8.43,2.804,-0.346,0.27,-0.76,1.374
'0:03.379',107.161,1301.108,25.022,-7.882,-48.125,1.793,-8.326,2.69,1.779,-8.344,2.706,-0.333,0.273,-0.785,1.378
'0:03.383',171.627,1319.398,25.484,-7.323,-49.934,1.781,-8.291,2.618,1.751,-8.287,2.658,-0.352,0.264,-0.768,1.382
'0:03.387',223.382,1337.014,26.012,-6.406,-51.848,1.806,-8.256,2.582,1.732,-8.248,2.628,-0.351,0.259,-0.77,1.386
'0:03.391',274.03,1315.76,26.225,-5.724,-53.278,1.781,-8.245,2.534,1.723,-8.23,2.54,-0.349,0.268,-0.77,1.39
'0:03.395',355.965,1319.398,26.808,-4.983,-54.724,1.782,-8.221,2.51,1.733,-8.202,2.472,-0.347,0.264,-0.733,1.394
'0:03.398',423.103,1338.462,27.696,-3.419,-56.825,1.757,-8.222,2.461,1.714,-8.182,2.482,-0.347,0.264,-0.733,1.398
'0:03.402',472.447,1361.164,28.188,-3.088,-57.709,1.72,-8.245,2.436,1.705,-8.222,2.423,-0.361,0.277,-0.737,1.402
'0:03.406',513.447,1372.885,28.538,-2.697,-58.551,1.683,-8.269,2.423,1.666,-8.201,2.471,-0.361,0.271,-0.728,1.406
'0:03.410',565.985,1371.437,29.095,-2.394,-59.29,1.658,-8.317,2.398,1.676,-8.271,2.412,-0.373,0.275,-0.754,1.409
'0:03.414',612.395,1323.069,29.598,-2.239,-59.82,1.646,-8.317,2.373,1.657,-8.299,2.431,-0.38,0.277,-0.722,1.413
'0:03.418',659.588,1318.691,29.986,-2.009,-60.507,1.633,-8.365,2.36,1.551,-8.336,2.439,-0.37,0.282,-0.718,1.417
'0:03.422',708.084,1318.691,30.503,-2.117,-61.037,1.608,-8.412,2.359,1.541,-8.355,2.429,-0.384,0.275,-0.724,1.421
'0:03.426',751.496,1302.557,30.936,-2.319,-61.167,1.595,-8.484,2.358,1.522,-8.415,2.331,-0.384,0.275,-0.724,1.425
'0:03.430',728.552,1312.089,31.408,-2.798,-61.427,1.583,-8.509,2.321,1.513,-8.522,2.32,-0.389,0.28,-0.71,1.429
'0:03.434',698.632,1310.607,31.803,-3.392,-61.365,1.57,-8.569,2.307,1.513,-8.513,2.261,-0.379,0.28,-0.708,1.433
'0:03.438',648.246,1306.969,31.896,-4.1,-61.417,1.533,-8.58,2.307,1.398,-8.569,2.288,-0.384,0.273,-0.72,1.437
'0:03.441',596.491,1249.811,32.521,-4.915,-61.094,1.521,-8.592,2.294,1.389,-8.59,2.19,-0.396,0.277,-0.691,1.441
'0:03.445',541.997,1252,32.62,-5.657,-60.933,1.484,-8.591,2.294,1.408,-8.629,2.219,-0.386,0.293,-0.699,1.445
'0:03.449',487.57,1241.76,32.696,-6.709,-60.642,1.435,-8.59,2.269,1.398,-8.649,2.19,-0.386,0.293,-0.699,1.449
'0:03.453',424.733,1210.268,32.582,-7.869,-60.502,1.423,-8.602,2.256,1.369,-8.619,2.199,-0.405,0.289,-0.72,1.452
'0:03.457',326.372,1221.248,32.32,-9.231,-60.169,1.423,-8.602,2.256,1.273,-8.636,2.237,-0.389,0.293,-0.739,1.456
'0:03.461',258.647,1157.521,32.048,-10.788,-59.961,1.398,-8.614,2.244,1.235,-8.645,2.216,-0.407,0.284,-0.72,1.46
'0:03.465',203.111,1185.343,31.926,-11.988,-59.649,1.398,-8.59,2.22,1.312,-8.61,2.111,-0.387,0.278,-0.737,1.464
'0:03.469',162.697,1170.691,31.411,-13.526,-59.17,1.41,-8.602,2.244,1.36,-8.609,2.19,-0.407,0.278,-0.733,1.468
'0:03.473',115.765,1143.577,31.058,-15.104,-58.869,1.447,-8.579,2.233,1.379,-8.571,2.171,-0.415,0.282,-0.689,1.472
'0:03.477',66.161,1123.806,30.315,-16.331,-58.359,1.459,-8.579,2.257,1.379,-8.589,2.239,-0.415,0.282,-0.689,1.476
'0:03.480',31.158,1123.065,29.716,-17.632,-57.751,1.484,-8.58,2.257,1.417,-8.609,2.239,-0.415,0.296,-0.695,1.48
'0:03.484',-22.488,1122.357,28.96,-18.832,-57.303,1.509,-8.567,2.319,1.359,-8.617,2.267,-0.414,0.284,-0.708,1.484
'0:03.488',-30.049,1115.756,28.238,-19.864,-56.373,1.545,-8.592,2.331,1.416,-8.792,2.306,-0.414,0.277,-0.747,1.488
'0:03.492',-0.391,1111.343,27.474,-20.794,-55.79,1.569,-8.591,2.38,1.455,-8.657,2.327,-0.433,0.286,-0.666,1.492
'0:03.496',24.965,1076.92,26.679,-21.509,-54.89,1.569,-8.626,2.427,1.455,-8.646,2.357,-0.424,0.289,-0.724,1.495
'0:03.500',24.378,1080.591,25.708,-22.177,-54.157,1.593,-8.65,2.488,1.454,-8.665,2.425,-0.424,0.289,-0.68,1.499
'0:03.504',10.886,1114.273,25.199,-22.851,-53.497,1.593,-8.673,2.511,1.512,-8.646,2.446,-0.44,0.291,-0.68,1.503
'0:03.508',-7.431,1120.134,24.243,-23.424,-52.488,1.593,-8.673,2.56,1.502,-8.645,2.475,-0.424,0.293,-0.649,1.507
'0:03.512',-42.76,1127.477,23.65,-24.145,-51.359,1.605,-8.696,2.584,1.473,-8.663,2.523,-0.45,0.296,-0.657,1.511
'0:03.516',-69.159,1137.009,22.777,-24.449,-50.74,1.617,-8.696,2.608,1.52,-8.712,2.543,-0.452,0.298,-0.637,1.515
'0:03.520',-105.01,1140.647,21.863,-25.238,-49.919,1.593,-8.683,2.632,1.501,-8.692,2.552,-0.447,0.296,-0.63,1.519
'0:03.523',-134.147,1123.065,21.035,-25.723,-49.019,1.605,-8.684,2.608,1.491,-8.681,2.611,-0.457,0.294,-0.657,1.523
'0:03.527',-150.573,1175.811,20.024,-26.236,-48.088,1.617,-8.684,2.633,1.481,-8.7,2.611,-0.457,0.294,-0.657,1.527
'0:03.531',-185.055,1180.964,19.108,-26.451,-47.532,1.617,-8.684,2.633,1.482,-8.662,2.591,-0.466,0.298,-0.628,1.531
'0:03.535',-228.467,1171.432,17.773,-26.492,-46.835,1.655,-8.636,2.646,1.51,-8.652,2.621,-0.449,0.296,-0.653,1.534
'0:03.539',-249.521,1229.298,16.696,-26.499,-45.831,1.679,-8.637,2.634,1.568,-8.605,2.603,-0.449,0.287,-0.67,1.538
'0:03.543',-294.823,1211.716,15.822,-26.29,-45.202,1.691,-8.613,2.647,1.606,-8.596,2.623,-0.468,0.284,-0.666,1.542
'0:03.547',-340.125,1254.93,14.476,-25.898,-44.266,1.728,-8.626,2.659,1.664,-8.616,2.624,-0.452,0.296,-0.662,1.546
'0:03.551',-388.361,1233.71,13.311,-25.217,-43.345,1.753,-8.589,2.709,1.731,-8.636,2.635,-0.485,0.294,-0.634,1.55
'0:03.555',-449.307,1283.526,12.3,-24.186,-42.435,1.79,-8.578,2.734,1.703,-8.665,2.644,-0.485,0.294,-0.634,1.554
'0:03.559',-489.721,1304.039,11.103,-23.255,-41.479,1.826,-8.578,2.758,1.683,-8.596,2.673,-0.489,0.293,-0.622,1.558
'0:03.563',-535.805,1274.735,10.095,-21.954,-40.574,1.827,-8.541,2.808,1.673,-8.545,2.781,-0.487,0.291,-0.655,1.562
'0:03.566',-563.312,1319.398,9.092,-20.639,-39.56,1.802,-8.528,2.844,1.702,-8.546,2.772,-0.47,0.291,-0.616,1.566
'0:03.570',-609.658,1312.83,8.125,-19.304,-38.592,1.803,-8.515,2.88,1.749,-8.506,2.871,-0.459,0.282,-0.659,1.57
'0:03.574',-623.737,1324.551,7.302,-17.821,-37.464,1.79,-8.49,2.905,1.72,-8.525,2.88,-0.492,0.284,-0.62,1.574
'0:03.578',-635.535,1350.924,6.521,-16.304,-36.871,1.791,-8.442,2.906,1.72,-8.477,2.831,-0.492,0.284,-0.62,1.577
'0:03.582',-634.492,1372.885,5.38,-14.901,-35.794,1.767,-8.418,2.906,1.682,-8.457,2.831,-0.492,0.289,-0.626,1.581
'0:03.586',-627.192,1381.676,4.434,-13.553,-34.968,1.731,-8.368,2.918,1.662,-8.378,2.88,-0.501,0.289,-0.62,1.585
'0:03.590',-607.246,1395.621,2.784,-10.97,-33.225,1.694,-8.344,2.906,1.633,-8.309,2.919,-0.505,0.294,-0.588,1.589
'0:03.594',-605.616,1400.74,2.243,-9.757,-32.508,1.646,-8.27,2.919,1.595,-8.28,2.889,-0.499,0.286,-0.603,1.593
'0:03.598',-617.219,1408.79,1.433,-8.806,-31.359,1.623,-8.161,2.945,1.547,-8.2,2.928,-0.492,0.286,-0.664,1.597
'0:03.602',-630.451,1421.253,0.614,-7.633,-30.313,1.586,-8.112,2.933,1.537,-8.162,2.909,-0.506,0.277,-0.616,1.601
'0:03.605',-653.069,1425.631,0.004,-6.77,-29.486,1.55,-8.039,2.934,1.5,-8.094,2.84,-0.506,0.277,-0.616,1.605
'0:03.609',-680.055,1406.601,-0.701,-5.954,-28.561,1.539,-7.967,2.923,1.48,-8.006,2.86,-0.505,0.293,-0.58,1.609
'0:03.613',-696.481,1403.671,-1.309,-5.279,-27.484,1.503,-7.858,2.924,1.451,-7.928,2.87,-0.508,0.286,-0.578,1.613
'0:03.617',-712.125,1417.581,-1.783,-4.356,-26.6,1.48,-7.798,2.937,1.423,-7.83,2.861,-0.499,0.291,-0.632,1.617
'0:03.621',-726.661,1434.423,-2.543,-3.776,-25.518,1.468,-7.737,2.926,1.384,-7.79,2.899,-0.505,0.293,-0.578,1.62
'0:03.625',-746.346,1432.974,-3.067,-3.095,-23.984,1.457,-7.653,2.939,1.413,-7.685,2.832,-0.496,0.291,-0.597,1.624
'0:03.629',-739.372,1420.512,-3.907,-3.054,-22.845,1.445,-7.58,2.941,1.365,-7.684,2.841,-0.496,0.271,-0.626,1.628
'0:03.633',-741.523,1438.094,-4.548,-2.886,-21.701,1.421,-7.532,2.917,1.336,-7.546,2.93,-0.513,0.271,-0.626,1.632
'0:03.637',-743.413,1452.005,-5.462,-2.839,-19.996,1.398,-7.472,2.905,1.279,-7.498,2.841,-0.508,0.289,-0.586,1.636
'0:03.641',-710.757,1474.74,-5.662,-2.899,-18.841,1.374,-7.411,2.918,1.259,-7.487,2.89,-0.519,0.286,-0.593,1.64
'0:03.645',-697.59,1479.119,-6.777,-3.344,-17.125,1.362,-7.362,2.919,1.26,-7.44,2.812,-0.496,0.296,-0.613,1.644
'0:03.648',-671.712,1461.537,-7.602,-3.661,-15.658,1.362,-7.338,2.932,1.26,-7.411,2.842,-0.506,0.287,-0.584,1.648
'0:03.652',-640.945,1449.815,-8.212,-4.268,-13.656,1.338,-7.326,2.931,1.212,-7.342,2.841,-0.512,0.291,-0.599,1.652
'0:03.656',-613.438,1495.252,-9.297,-4.915,-12.2,1.35,-7.338,2.907,1.231,-7.352,2.832,-0.512,0.291,-0.599,1.656
'0:03.660',-566.832,1468.879,-9.812,-5.866,-9.995,1.35,-7.326,2.92,1.241,-7.362,2.812,-0.524,0.28,-0.59,1.659
'0:03.664',-535.805,1482.049,-10.584,-6.743,-7.821,1.387,-7.351,2.932,1.231,-7.381,2.851,-0.524,0.277,-0.578,1.663
'0:03.668',-491.089,1485.72,-11.236,-7.727,-5.611,1.386,-7.374,2.956,1.241,-7.392,2.803,-0.527,0.282,-0.603,1.667
'0:03.672',-459.802,1490.84,-12.22,-8.664,-3.463,1.41,-7.411,2.931,1.24,-7.459,2.841,-0.505,0.287,-0.582,1.671
'0:03.676',-433.924,1460.796,-13.1,-9.898,-0.988,1.459,-7.448,2.943,1.26,-7.449,2.851,-0.519,0.28,-0.609,1.675
'0:03.680',-389.143,1484.238,-14.018,-11.166,1.352,1.483,-7.485,2.955,1.278,-7.458,2.9,-0.517,0.286,-0.582,1.679
'0:03.684',-388.882,1490.84,-14.809,-12.386,3.906,1.507,-7.51,2.943,1.346,-7.498,2.911,-0.517,0.286,-0.582,1.683
'0:03.688',-388.1,1467.397,-15.624,-13.323,5.991,1.581,-7.523,2.968,1.336,-7.528,2.871,-0.508,0.289,-0.649,1.687
'0:03.691',-402.897,1490.099,-16.517,-14.53,8.435,1.629,-7.56,2.956,1.461,-7.55,2.854,-0.519,0.273,-0.603,1.691
'0:03.695',-412.609,1455.676,-17.262,-15.67,10.968,1.69,-7.61,2.943,1.5,-7.531,2.825,-0.51,0.282,-0.607,1.695
'0:03.699',-420.17,1486.461,-18.195,-16.715,13.303,1.726,-7.659,2.943,1.557,-7.619,2.884,-0.527,0.275,-0.613,1.699
'0:03.703',-451.719,1484.979,-19.163,-17.881,15.414,1.787,-7.697,2.931,1.605,-7.678,2.885,-0.526,0.273,-0.572,1.702
'0:03.707',-448.46,1457.158,-20.162,-18.758,18.113,1.823,-7.745,2.955,1.663,-7.698,2.876,-0.526,0.273,-0.572,1.706
'0:03.711',-463.321,1490.099,-20.864,-19.601,20.412,1.859,-7.782,2.943,1.711,-7.766,2.925,-0.508,0.282,-0.574,1.71
'0:03.715',-475.185,1450.556,-21.966,-20.316,23.053,1.896,-7.831,2.942,1.721,-7.776,2.905,-0.517,0.264,-0.624,1.714
'0:03.719',-484.05,1462.278,-22.677,-20.949,25.534,1.957,-7.856,2.967,1.845,-7.856,2.926,-0.505,0.271,-0.626,1.718
'0:03.723',-483.267,1464.467,-23.705,-21.624,27.931,1.981,-7.893,2.942,1.855,-7.884,2.965,-0.512,0.259,-0.605,1.722
'0:03.727',-478.965,1429.303,-24.315,-22.372,30.178,2.029,-7.942,2.966,1.864,-7.914,2.955,-0.491,0.266,-0.605,1.726
'0:03.730',-491.872,1418.322,-25.398,-22.878,32.477,2.053,-7.979,2.954,1.894,-7.954,2.897,-0.508,0.254,-0.632,1.73
'0:03.734',-503.474,1425.631,-26.339,-23.134,34.957,2.102,-8.004,2.954,1.913,-7.965,2.848,-0.508,0.254,-0.632,1.734
'0:03.738',-498.325,1449.074,-27.118,-23.633,36.975,2.126,-8.041,2.942,1.971,-8.043,2.888,-0.505,0.261,-0.601,1.738
'0:03.742',-499.433,1430.785,-27.956,-23.862,39.222,2.163,-8.054,2.906,1.98,-8.053,2.888,-0.503,0.263,-0.618,1.742
'0:03.746',-493.501,1411.721,-28.967,-24.193,41.286,2.186,-8.14,2.856,2.086,-8.095,2.821,-0.508,0.257,-0.59,1.745
'0:03.750',-503.735,1403.671,-30.144,-24.051,43.351,2.223,-8.177,2.832,2.115,-8.173,2.811,-0.499,0.263,-0.609,1.749
'0:03.754',-499.433,1434.423,-31.05,-24.011,45.457,2.246,-8.274,2.806,2.135,-8.242,2.791,-0.501,0.264,-0.634,1.753
'0:03.758',-481.899,1408.049,-32.348,-23.707,47.729,2.282,-8.408,2.768,2.125,-8.398,2.741,-0.501,0.252,-0.624,1.757
'0:03.762',-468.666,1416.133,-33.24,-23.269,49.893,2.341,-8.542,2.754,2.154,-8.487,2.712,-0.508,0.252,-0.624,1.761
'0:03.766',-444.679,1431.492,-34.454,-22.952,52.015,2.388,-8.723,2.74,2.222,-8.663,2.663,-0.501,0.257,-0.605,1.765
'0:03.770',-436.075,1409.531,-35.475,-22.406,54.282,2.423,-8.905,2.7,2.26,-8.732,2.672,-0.489,0.255,-0.637,1.769
'0:03.773',-400.485,1420.512,-36.716,-22.042,56.388,2.495,-9.075,2.686,2.357,-8.958,2.594,-0.498,0.245,-0.643,1.773
'0:03.777',-385.102,1418.322,-37.725,-21.138,58.713,2.541,-9.281,2.659,2.376,-9.231,2.573,-0.48,0.245,-0.668,1.777
'0:03.781',-371.935,1446.144,-39.979,-19.695,63.175,2.564,-9.474,2.644,2.385,-9.338,2.562,-0.489,0.236,-0.639,1.781
'0:03.785',-361.114,1416.133,-41.165,-18.974,65.088,2.586,-9.656,2.617,2.453,-9.582,2.552,-0.489,0.236,-0.639,1.784
'0:03.789',-319.853,1416.84,-42.294,-18.394,67.361,2.621,-9.862,2.577,2.443,-9.737,2.55,-0.477,0.243,-0.703,1.788
'0:03.793',-287.523,1419.063,-43.236,-17.666,69.301,2.655,-10.067,2.574,2.443,-9.961,2.519,-0.482,0.229,-0.662,1.792
'0:03.797',-258.125,1397.81,-44.299,-16.917,71.199,2.666,-10.259,2.558,2.51,-10.205,2.509,-0.475,0.234,-0.641,1.796
'0:03.801',-212.301,1427.113,-45.154,-16.23,72.894,2.688,-10.489,2.518,2.539,-10.351,2.508,-0.468,0.232,-0.647,1.8
'0:03.805',-184.012,1394.88,-46.359,-15.387,74.626,2.734,-10.719,2.503,2.539,-10.614,2.477,-0.47,0.232,-0.649,1.804
'0:03.809',-171.627,1416.133,-47.412,-14.578,76.321,2.768,-11.009,2.462,2.586,-10.798,2.515,-0.459,0.238,-0.655,1.808
'0:03.813',-153.832,1380.228,-48.132,-13.876,78.079,2.802,-11.214,2.458,2.693,-11.084,2.407,-0.459,0.238,-0.655,1.812
'0:03.816',-143.272,1360.456,-48.805,-12.858,79.551,2.873,-11.469,2.431,2.721,-11.24,2.416,-0.461,0.225,-0.705,1.816
'0:03.820',-132.257,1397.81,-49.565,-12.069,81.21,2.92,-11.674,2.428,2.798,-11.562,2.395,-0.471,0.225,-0.666,1.82
'0:03.824',-119.285,1389.76,-49.996,-10.916,82.401,2.978,-11.88,2.413,2.855,-11.814,2.443,-0.456,0.227,-0.668,1.824
'0:03.828',-120.915,1374.367,-50.633,-9.689,83.763,3.025,-12.061,2.398,2.913,-11.941,2.463,-0.445,0.218,-0.701,1.827
'0:03.832',-102.598,1367.024,-50.985,-8.28,85.5,3.085,-12.256,2.371,2.99,-12.139,2.335,-0.452,0.216,-0.687,1.831
'0:03.836',-125.738,1366.317,-51.534,-7.019,86.353,3.131,-12.45,2.344,3.02,-12.237,2.286,-0.452,0.216,-0.687,1.835
'0:03.840',-115.765,1352.373,-51.617,-5.07,86.774,3.191,-12.656,2.317,3.125,-12.53,2.325,-0.435,0.22,-0.703,1.839
'0:03.844',-103.641,1343.582,-51.513,-3.29,87.424,3.225,-12.897,2.325,3.134,-12.81,2.381,-0.435,0.218,-0.722,1.843
'0:03.848',-42.76,1308.418,-51.26,-1.901,87.814,3.271,-13.077,2.359,3.143,-12.956,2.38,-0.438,0.209,-0.712,1.847
'0:03.852',36.242,1309.159,-51.241,-0.452,88.917,3.332,-13.187,2.37,3.239,-13.094,2.361,-0.429,0.215,-0.72,1.851
'0:03.855',200.438,1317.209,-50.853,1.51,89.068,3.343,-13.259,2.381,3.278,-13.192,2.361,-0.414,0.209,-0.739,1.855
'0:03.859',505.104,1321.621,-50.342,3.223,88.371,3.379,-13.295,2.393,3.326,-13.28,2.381,-0.421,0.195,-0.733,1.859
'0:03.863',584.106,1322.328,-49.586,4.848,87.383,3.355,-13.295,2.405,3.325,-13.269,2.459,-0.421,0.195,-0.733,1.863
'0:03.867',574.915,1332.601,-48.552,6.507,86.868,3.355,-13.234,2.43,3.325,-13.248,2.508,-0.414,0.211,-0.718,1.867
'0:03.871',516.12,1356.785,-47.535,7.936,85.276,3.32,-13.113,2.444,3.306,-13.112,2.489,-0.398,0.206,-0.76,1.87
'0:03.875',419.323,1376.557,-45.891,9.628,83.337,3.285,-12.956,2.422,3.287,-13.054,2.48,-0.398,0.206,-0.76,1.874
'0:03.879',323.634,1428.562,-44.631,11.314,81.184,3.288,-12.74,2.426,3.239,-12.83,2.49,-0.373,0.188,-0.751,1.878
'0:03.883',247.891,1454.228,-42.784,13.067,78.349,3.278,-12.513,2.357,3.268,-12.695,2.443,-0.384,0.193,-0.743,1.882
'0:03.887',215.3,1470.328,-41.007,14.557,75.666,3.257,-12.201,2.314,3.288,-12.377,2.358,-0.384,0.193,-0.774,1.886
'0:03.891',186.945,1482.049,-39.392,16.203,72.005,3.235,-11.913,2.27,3.222,-11.949,2.302,-0.391,0.193,-0.774,1.89
'0:03.895',157.287,1529.676,-37.179,17.861,68.547,3.178,-11.611,2.227,3.232,-11.775,2.294,-0.386,0.19,-0.745,1.894
'0:03.898',97.449,1563.358,-35.349,19.493,64.88,3.108,-11.311,2.171,3.175,-11.388,2.188,-0.377,0.199,-0.754,1.898
'0:03.902',40.022,1608.054,-33.603,21.152,60.465,3.025,-11.046,2.089,3.089,-11.261,2.149,-0.372,0.192,-0.797,1.902
'0:03.906',22.227,1665.92,-31.826,23.006,56.06,2.967,-10.769,2.021,3.07,-10.921,2.112,-0.368,0.178,-0.8,1.906
'0:03.910',22.749,1739.179,-29.771,24.314,51.562,2.92,-10.529,1.964,3.003,-10.736,2.083,-0.361,0.188,-0.777,1.909
'0:03.914',-6.844,1756.761,-28.078,25.824,46.721,2.812,-10.312,1.894,2.937,-10.386,2.046,-0.361,0.188,-0.777,1.913
'0:03.918',-62.38,1820.521,-26.339,26.883,42.155,2.766,-10.119,1.86,2.871,-10.136,1.852,-0.368,0.186,-0.787,1.917
'0:03.922',-86.107,1865.217,-24.374,28.279,37.646,2.707,-9.938,1.802,2.813,-10.048,1.881,-0.354,0.195,-0.81,1.921
'0:03.926',-122.023,1919.412,-22.481,29.641,33.049,2.61,-9.793,1.731,2.709,-9.854,1.773,-0.352,0.192,-0.766,1.925
'0:03.930',-122.805,1964.849,-20.639,30.908,28.862,2.563,-9.673,1.672,2.622,-9.785,1.733,-0.354,0.188,-0.793,1.929
'0:03.934',-136.559,1999.272,-18.876,32.169,24.437,2.441,-9.588,1.575,2.527,-9.658,1.674,-0.365,0.188,-0.756,1.933
'0:03.938',-175.343,2025.646,-17.074,33.086,20.38,2.357,-9.491,1.539,2.365,-9.532,1.516,-0.359,0.186,-0.783,1.937
'0:03.941',-213.084,2064.481,-15.181,33.76,16.683,2.235,-9.441,1.49,2.307,-9.502,1.534,-0.359,0.186,-0.783,1.941
'0:03.945',-216.603,2068.86,-13.275,34.448,13.256,2.113,-9.403,1.453,2.173,-9.394,1.445,-0.332,0.178,-0.862,1.945
'0:03.949',-127.368,2112.815,-11.639,34.893,9.782,2.015,-9.377,1.403,2.087,-9.394,1.405,-0.361,0.19,-0.789,1.949
'0:03.953',-20.337,2087.924,-9.732,34.934,6.641,1.917,-9.376,1.366,1.991,-9.355,1.306,-0.359,0.199,-0.774,1.952
'0:03.957',114.983,2099.645,-7.935,34.509,3.619,1.831,-9.387,1.304,1.944,-9.413,1.275,-0.342,0.199,-0.812,1.956
'0:03.961',179.971,2100.353,-6.247,33.619,0.562,1.757,-9.435,1.217,1.819,-9.373,1.215,-0.359,0.195,-0.795,1.96
'0:03.965',66.161,2093.785,-4.706,32.149,-2.288,1.745,-9.472,1.168,1.772,-9.442,1.126,-0.359,0.195,-0.795,1.964
'0:03.969',-205.327,2071.049,-2.955,30.214,-5.055,1.744,-9.521,1.119,1.733,-9.491,1.105,-0.326,0.195,-0.86,1.968
'0:03.973',-443.636,2040.297,0.243,25.312,-10.037,1.78,-9.606,1.069,1.811,-9.552,1.018,-0.339,0.19,-0.839,1.972
'0:03.977',-741.784,1967.78,1.809,22.75,-12.226,1.829,-9.656,1.045,1.801,-9.6,1.047,-0.344,0.204,-0.758,1.976
'0:03.980',-1031.327,1924.532,3.358,20.329,-14.062,1.876,-9.754,1.007,1.84,-9.66,0.969,-0.352,0.202,-0.81,1.98
'0:03.984',-1141.617,1904.76,4.379,17.079,-16.048,1.95,-9.792,0.996,1.907,-9.778,0.94,-0.366,0.192,-0.779,1.984
'0:03.988',-1062.093,1854.203,5.903,14.18,-17.141,1.998,-9.854,0.971,1.898,-9.817,0.949,-0.365,0.201,-0.781,1.988
'0:03.992',-944.503,1783.168,6.832,11.314,-18.498,2.021,-9.951,0.957,1.965,-9.867,0.92,-0.365,0.201,-0.781,1.992
'0:03.996',-771.703,1711.357,8.022,8.496,-19.372,2.033,-10,0.92,1.975,-9.935,0.91,-0.365,0.199,-0.76,1.995
'0:04.000',-614.025,1675.452,8.86,5.603,-20.479,2.093,-10.085,0.908,1.984,-10.032,0.91,-0.365,0.201,-0.785,1.999
'0:04.004',-455.499,1574.372,9.514,2.778,-20.973,2.129,-10.159,0.883,2.052,-10.102,0.862,-0.349,0.206,-0.791,2.003
'0:04.008',-302.906,1544.327,10.508,0.196,-21.587,2.19,-10.233,0.858,2.119,-10.141,0.921,-0.366,0.199,-0.802,2.007
'0:04.012',-227.424,1476.929,11.403,-2.036,-22.06,2.25,-10.307,0.821,2.206,-10.231,0.873,-0.37,0.208,-0.768,2.011
'0:04.016',-211.258,1372.885,11.774,-4.342,-22.419,2.335,-10.381,0.821,2.253,-10.299,0.922,-0.37,0.204,-0.77,2.015
'0:04.020',-198.548,1344.323,12.511,-6.338,-22.788,2.408,-10.479,0.796,2.34,-10.37,0.854,-0.379,0.204,-0.77,2.019
'0:04.023',-173.778,1275.443,13.18,-7.896,-22.731,2.517,-10.554,0.784,2.398,-10.478,0.816,-0.379,0.206,-0.737,2.023
'0:04.027',-138.71,1206.596,13.796,-9.163,-22.814,2.626,-10.629,0.796,2.494,-10.548,0.807,-0.377,0.213,-0.758,2.027
'0:04.031',-143.533,1150.179,14.193,-10.215,-22.533,2.699,-10.666,0.797,2.658,-10.629,0.78,-0.368,0.209,-0.756,2.031
'0:04.035',-127.954,1050.547,14.702,-10.802,-22.305,2.81,-10.681,0.798,2.696,-10.668,0.819,-0.379,0.204,-0.795,2.034
'0:04.039',-118.242,1041.756,15.031,-11.436,-21.899,2.895,-10.731,0.81,2.753,-10.648,0.908,-0.391,0.204,-0.758,2.038
'0:04.043',-95.558,977.288,15.582,-11.618,-21.322,2.956,-10.683,0.848,2.792,-10.649,0.87,-0.391,0.204,-0.758,2.042
'0:04.047',-89.627,933.333,16.12,-11.57,-20.838,2.993,-10.684,0.849,2.917,-10.631,0.882,-0.393,0.213,-0.76,2.046
'0:04.051',-60.229,906.219,16.909,-11.341,-20.443,3.018,-10.611,0.911,2.936,-10.632,0.892,-0.382,0.216,-0.747,2.05
'0:04.055',-62.38,835.89,17.536,-11.051,-20.474,3.019,-10.539,0.937,2.974,-10.573,0.942,-0.4,0.22,-0.731,2.054
'0:04.059',-23.857,841.01,18.155,-10.997,-20.297,3.044,-10.491,0.962,2.974,-10.455,1.011,-0.384,0.216,-0.76,2.058
'0:04.063',-2.281,783.885,19.187,-10.451,-20.479,3.032,-10.442,0.987,2.964,-10.416,1.011,-0.387,0.211,-0.726,2.062
'0:04.066',6.844,802.916,19.824,-10.336,-20.661,3.021,-10.357,1.013,2.993,-10.338,1.051,-0.396,0.209,-0.766,2.066
