'Elapsed time','chest_ecg','wrist_ppg','wrist_gyro_x','wrist_gyro_y','wrist_gyro_z','wrist_low_noise_accelerometer_x','wrist_low_noise_accelerometer_y','wrist_low_noise_accelerometer_z','wrist_wide_range_accelerometer_x','wrist_wide_range_accelerometer_y','wrist_wide_range_accelerometer_z','wrist_mag_x','wrist_mag_y','wrist_mag_z','sample_times_for_all_signals_apart_from_ecg'
'0:00.000',70.499,1411.355,-0.105,3.327,10.35,0.747,-1.484,9.237,0.6,-1.513,9.107,0.114,0.783,-0.507,45.997
'0:00.004',49.187,1403.096,0.686,2.993,10.373,0.685,-1.508,9.175,0.533,-1.542,9.076,0.119,0.787,-0.503,46.001
'0:00.008',39.237,1395.715,1.502,2.26,10.29,0.672,-1.568,9.137,0.495,-1.562,9.007,0.118,0.785,-0.503,46.005
'0:00.012',36.81,1389.979,1.908,1.522,10.125,0.672,-1.593,9.089,0.505,-1.582,8.977,0.114,0.789,-0.511,46.009
'0:00.016',28.968,1386.17,2.684,1.226,9.856,0.648,-1.594,9.016,0.495,-1.592,8.948,0.116,0.789,-0.503,46.013
'0:00.020',21.152,1384.156,3.091,-0.338,9.732,0.611,-1.559,8.919,0.448,-1.623,8.81,0.116,0.789,-0.503,46.017
'0:00.023',17.925,1383.487,3.429,-1.823,9.653,0.527,-1.498,8.87,0.333,-1.525,8.78,0.119,0.787,-0.505,46.021
'0:00.027',23.313,1383.623,3.832,-2.767,9.829,0.478,-1.435,8.931,0.343,-1.477,8.771,0.119,0.792,-0.501,46.025
'0:00.031',19.285,1384.149,4.571,-2.918,9.743,0.515,-1.41,9.029,0.333,-1.465,8.839,0.126,0.794,-0.488,46.029
'0:00.035',11.737,1384.787,4.907,-3.073,9.769,0.662,-1.435,9.164,0.39,-1.427,8.869,0.121,0.789,-0.501,46.032
'0:00.039',5.522,1385.274,5.368,-3.035,9.391,0.833,-1.473,9.262,0.61,-1.487,9,0.112,0.794,-0.505,46.036
'0:00.043',3.361,1385.382,5.63,-2.998,9.035,0.931,-1.451,9.288,0.668,-1.457,9.05,0.112,0.794,-0.505,46.04
'0:00.047',-7.682,1385.062,5.802,-3.435,8.683,0.932,-1.32,9.23,0.725,-1.409,9.1,0.119,0.79,-0.499,46.044
'0:00.051',2.561,1384.428,5.485,-4.111,9.207,0.909,-1.199,9.22,0.715,-1.262,9.15,0.118,0.787,-0.503,46.048
'0:00.055',8.749,1383.598,5.532,-4.036,9.743,0.898,-1.126,9.282,0.744,-1.195,9.151,0.116,0.789,-0.501,46.052
'0:00.059',3.628,1382.668,5.836,-4.092,9.799,0.959,-1.125,9.404,0.773,-1.107,9.191,0.119,0.79,-0.499,46.056
'0:00.063',4.721,1381.79,5.707,-3.867,9.646,1.068,-1.162,9.489,0.811,-1.116,9.26,0.116,0.794,-0.499,46.06
'0:00.066',10.376,1381.204,5.762,-3.867,9.151,1.202,-1.247,9.586,0.954,-1.204,9.379,0.119,0.794,-0.499,46.064
'0:00.070',17.925,1381.183,5.636,-3.557,8.656,1.25,-1.32,9.61,0.992,-1.329,9.437,0.119,0.794,-0.499,46.068
'0:00.074',7.149,1381.898,5.87,-3.242,8.54,1.262,-1.343,9.67,1.03,-1.321,9.428,0.119,0.794,-0.49,46.071
'0:00.078',19.285,1383.278,5.799,-2.782,9.042,1.201,-1.364,9.741,1.03,-1.338,9.516,0.123,0.79,-0.496,46.075
'0:00.082',21.419,1385.076,6.252,-1.875,9.713,1.127,-1.399,9.752,0.971,-1.385,9.583,0.121,0.79,-0.499,46.079
'0:00.086',27.101,1386.947,6.184,-1.842,9.822,1.053,-1.445,9.738,0.885,-1.433,9.532,0.119,0.789,-0.492,46.083
'0:00.090',18.458,1388.571,6.372,-1.79,10.065,0.942,-1.479,9.699,0.856,-1.5,9.521,0.121,0.792,-0.492,46.087
'0:00.094',23.046,1389.679,6.52,-1.574,10.152,0.881,-1.516,9.613,0.731,-1.537,9.509,0.121,0.792,-0.486,46.091
'0:00.098',18.458,1390.139,7.16,-2.312,11.028,0.819,-1.528,9.54,0.626,-1.577,9.37,0.118,0.794,-0.486,46.095
'0:00.102',21.713,1390.038,7.606,-2.857,11.257,0.758,-1.563,9.49,0.617,-1.587,9.341,0.121,0.792,-0.494,46.099
'0:00.105',27.901,1389.589,7.776,-3.308,11.553,0.721,-1.575,9.441,0.55,-1.587,9.3,0.119,0.792,-0.49,46.103
'0:00.109',33.823,1388.923,8.434,-3.623,11.763,0.733,-1.588,9.428,0.55,-1.597,9.271,0.119,0.792,-0.492,46.107
'0:00.113',37.077,1388.003,8.933,-3.641,11.598,0.782,-1.613,9.429,0.569,-1.655,9.281,0.125,0.796,-0.49,46.111
'0:00.117',17.925,1386.766,9.469,-3.862,11.872,0.806,-1.65,9.392,0.724,-1.698,9.224,0.123,0.794,-0.49,46.114
'0:00.121',23.58,1385.362,9.61,-4.581,11.785,0.782,-1.604,9.284,0.58,-1.677,9.154,0.123,0.794,-0.49,46.118
'0:00.125',29.261,1384.124,9.958,-6.118,12.156,0.673,-1.485,9.091,0.544,-1.556,8.881,0.123,0.801,-0.49,46.122
'0:00.129',32.756,1383.319,9.493,-8.274,12.823,0.517,-1.269,8.899,0.448,-1.439,8.821,0.118,0.794,-0.49,46.126
'0:00.133',34.916,1382.999,9.45,-9.237,13.389,0.396,-1.087,8.803,0.276,-1.205,8.694,0.116,0.796,-0.486,46.13
'0:00.137',33.022,1383.069,9.367,-10.107,13.483,0.385,-0.991,8.805,0.238,-1.108,8.674,0.123,0.801,-0.484,46.134
'0:00.141',24.673,1383.354,9.422,-10.478,13.333,0.484,-0.931,8.892,0.286,-1.01,8.764,0.119,0.796,-0.488,46.138
'0:00.145',31.395,1383.65,8.881,-10.75,12.853,0.667,-0.921,9.04,0.487,-0.972,8.875,0.126,0.798,-0.484,46.142
'0:00.148',33.022,1383.853,8.437,-10.515,12.029,0.887,-0.971,9.224,0.572,-1.01,9.003,0.126,0.798,-0.484,46.146
'0:00.152',32.756,1383.992,7.865,-9.562,11.579,1.095,-1.019,9.432,0.85,-1.05,9.193,0.118,0.789,-0.484,46.15
'0:00.156',31.128,1384.128,7.203,-8.194,11.939,1.229,-1.055,9.602,0.945,-1.05,9.263,0.123,0.798,-0.482,46.154
'0:00.160',71.566,1384.239,6.744,-7.015,11.977,1.314,-1.067,9.736,1.068,-1.097,9.489,0.125,0.799,-0.476,46.157
'0:00.164',78.315,1384.295,6.046,-5.427,12.456,1.375,-1.091,9.809,1.106,-1.075,9.617,0.137,0.796,-0.473,46.161
'0:00.168',81.275,1384.285,5.809,-3.881,12.625,1.326,-1.113,9.845,1.173,-1.114,9.676,0.123,0.803,-0.48,46.165
'0:00.172',81.809,1384.25,4.968,-3.439,12.587,1.289,-1.088,9.845,1.154,-1.094,9.686,0.123,0.803,-0.48,46.169
'0:00.176',48.653,1384.327,4.565,-3.016,12.449,1.228,-1.099,9.819,1.086,-1.093,9.684,0.123,0.801,-0.486,46.173
'0:00.180',72.927,1384.665,4.162,-2.608,12.295,1.13,-1.098,9.769,1.01,-1.142,9.624,0.121,0.798,-0.484,46.177
'0:00.184',78.048,1385.355,4.029,-2.72,12.145,1.056,-1.121,9.732,0.952,-1.113,9.575,0.128,0.798,-0.484,46.181
'0:00.188',33.022,1386.358,3.595,-2.692,11.448,0.982,-1.155,9.754,0.837,-1.14,9.572,0.125,0.799,-0.486,46.185
'0:00.191',19.819,1387.574,3.506,-3.021,11.115,0.933,-1.19,9.741,0.77,-1.208,9.522,0.126,0.798,-0.48,46.189
'0:00.195',17.125,1388.85,3.783,-3.016,10.774,0.896,-1.226,9.703,0.77,-1.246,9.522,0.123,0.801,-0.471,46.193
'0:00.199',22.246,1390.038,3.158,-3.392,10.451,0.884,-1.239,9.63,0.693,-1.275,9.462,0.123,0.801,-0.471,46.196
'0:00.203',43.532,1391.024,2.958,-3.524,10.208,0.823,-1.239,9.557,0.674,-1.305,9.432,0.121,0.799,-0.482,46.2
'0:00.207',47.32,1391.693,2.869,-3.585,10.118,0.81,-1.24,9.484,0.665,-1.277,9.363,0.121,0.803,-0.48,46.204
'0:00.211',19.552,1391.882,2.727,-3.162,9.945,0.81,-1.241,9.436,0.684,-1.248,9.364,0.121,0.801,-0.478,46.208
'0:00.215',19.019,1391.547,2.493,-2.88,9.732,0.81,-1.302,9.374,0.628,-1.298,9.245,0.126,0.801,-0.484,46.212
'0:00.219',38.944,1390.892,2.416,-2.857,9.455,0.749,-1.302,9.325,0.59,-1.299,9.137,0.126,0.803,-0.476,46.216
'0:00.223',57.562,1390.205,2.152,-3.195,9.297,0.676,-1.253,9.276,0.542,-1.269,9.137,0.126,0.803,-0.476,46.22
'0:00.227',61.057,1389.609,2.105,-3.176,8.99,0.652,-1.194,9.216,0.485,-1.26,9.068,0.123,0.796,-0.476,46.224
'0:00.230',82.102,1388.982,1.875,-2.96,9.02,0.616,-1.121,9.205,0.456,-1.21,9.087,0.125,0.803,-0.48,46.228
'0:00.234',66.445,1388.121,1.456,-2.758,8.548,0.617,-1.085,9.17,0.456,-1.124,9.058,0.121,0.801,-0.478,46.232
'0:00.238',57.829,1386.94,1.173,-2.65,8.15,0.605,-1.002,9.098,0.418,-1.027,8.99,0.121,0.805,-0.48,46.236
'0:00.242',45.959,1385.452,0.785,-3.402,7.986,0.582,-0.93,9.075,0.409,-0.969,8.981,0.125,0.806,-0.478,46.239
'0:00.246',46.226,1383.689,-0.052,-3.914,7.899,0.558,-0.893,9.124,0.419,-0.892,8.952,0.123,0.805,-0.482,46.243
'0:00.250',62.417,1381.713,-0.434,-3.89,7.63,0.606,-0.88,9.234,0.409,-0.882,8.981,0.123,0.805,-0.482,46.247
'0:00.254',108.243,1379.716,-0.536,-3.19,7.528,0.741,-0.928,9.368,0.599,-0.938,9.228,0.126,0.799,-0.484,46.251
'0:00.258',102.321,1377.991,-0.843,-2.392,6.985,0.911,-1.002,9.502,0.656,-0.957,9.307,0.126,0.801,-0.48,46.255
'0:00.262',97.2,1376.782,-1.053,-1.504,6.037,1.021,-1.026,9.624,0.8,-1.035,9.407,0.128,0.805,-0.484,46.259
'0:00.266',99.334,1376.169,-1.631,-0.273,5.737,1.057,-1.074,9.696,0.857,-1.103,9.505,0.125,0.796,-0.473,46.263
'0:00.270',141.132,1376.04,-1.822,0.512,5.284,1.081,-1.11,9.708,0.866,-1.121,9.573,0.123,0.798,-0.476,46.267
'0:00.273',103.922,1376.231,-2.435,2.063,5.044,1.069,-1.122,9.684,0.885,-1.161,9.515,0.123,0.798,-0.471,46.271
'0:00.277',10.91,1376.629,-2.281,2.467,4.729,1.02,-1.146,9.658,0.915,-1.182,9.456,0.126,0.803,-0.471,46.275
'0:00.281',-35.183,1377.103,-2.54,2.603,4.1,0.958,-1.157,9.633,0.828,-1.171,9.455,0.125,0.803,-0.486,46.279
'0:00.285',21.419,1377.441,-2.653,2.683,3.687,0.921,-1.181,9.571,0.799,-1.2,9.425,0.128,0.798,-0.48,46.282
'0:00.289',109.87,1377.507,-2.61,2.913,3.144,0.885,-1.181,9.535,0.742,-1.2,9.395,0.125,0.798,-0.48,46.286
'0:00.293',196.4,1377.378,-2.737,2.932,2.653,0.872,-1.181,9.51,0.723,-1.19,9.355,0.128,0.799,-0.476,46.29
'0:00.297',134.383,1377.28,-2.866,2.551,2.185,0.884,-1.218,9.473,0.713,-1.2,9.365,0.128,0.803,-0.48,46.294
'0:00.301',14.697,1377.371,-2.974,2.73,1.922,0.884,-1.219,9.449,0.743,-1.24,9.306,0.128,0.803,-0.48,46.298
'0:00.305',-35.183,1377.608,-3.192,1.776,1.739,0.824,-1.17,9.377,0.705,-1.172,9.267,0.123,0.796,-0.484,46.302
'0:00.309',-29.261,1377.887,-3.497,1.085,1.709,0.739,-1.086,9.28,0.609,-1.163,9.188,0.123,0.801,-0.486,46.306
'0:00.313',35.716,1378.225,-4.131,0.489,1.836,0.69,-1.049,9.256,0.552,-1.096,9.09,0.128,0.801,-0.484,46.31
'0:00.316',143.826,1378.719,-4.076,0.569,1.971,0.678,-1.049,9.28,0.523,-1.085,9.099,0.128,0.798,-0.48,46.314
'0:00.320',163.244,1379.361,-4.306,0.531,1.701,0.764,-1.062,9.317,0.552,-1.114,9.148,0.123,0.801,-0.48,46.318
'0:00.324',117.685,1379.984,-4.488,0.493,1.364,0.824,-1.087,9.33,0.609,-1.114,9.178,0.123,0.799,-0.484,46.321
'0:00.328',193.706,1380.417,-5.436,0.348,1.12,0.861,-1.1,9.318,0.676,-1.105,9.219,0.133,0.799,-0.484,46.325
'0:00.332',289.145,1380.598,-5.769,0.207,1.653,0.861,-1.076,9.306,0.657,-1.086,9.199,0.13,0.799,-0.484,46.329
'0:00.336',536.626,1380.5,-6.049,0.437,1.731,0.874,-1.028,9.344,0.686,-1.106,9.18,0.133,0.799,-0.484,46.333
'0:00.340',544.975,1380.117,-6.397,0.662,2.211,0.886,-1.051,9.392,0.743,-1.047,9.269,0.13,0.799,-0.476,46.337
'0:00.344',419.634,1379.542,-6.75,0.437,2.297,0.923,-1.064,9.404,0.724,-1.085,9.278,0.126,0.805,-0.49,46.341
'0:00.348',326.355,1378.915,-7.083,0.616,2.222,0.959,-1.112,9.44,0.743,-1.135,9.249,0.132,0.803,-0.48,46.345
'0:00.352',324.728,1378.357,-7.046,0.836,1.817,1.007,-1.16,9.525,0.801,-1.154,9.289,0.132,0.803,-0.48,46.349
'0:00.355',300.989,1377.977,-6.901,1.151,1.675,1.092,-1.22,9.597,0.838,-1.24,9.386,0.13,0.799,-0.486,46.353
'0:00.359',271.354,1377.855,-6.926,1.677,1.866,1.14,-1.281,9.621,0.895,-1.298,9.465,0.13,0.798,-0.484,46.357
'0:00.363',315.019,1377.925,-6.911,1.851,1.54,1.14,-1.305,9.621,0.934,-1.319,9.436,0.142,0.799,-0.484,46.361
'0:00.367',231.716,1377.991,-7.157,1.762,1.578,1.127,-1.354,9.559,0.895,-1.327,9.465,0.13,0.798,-0.482,46.364
'0:00.371',3.921,1377.915,-6.815,1.753,1.758,1.078,-1.378,9.497,0.925,-1.338,9.416,0.128,0.803,-0.488,46.368
'0:00.375',-142.492,1377.691,-6.627,1.381,1.683,1.066,-1.416,9.412,0.868,-1.436,9.307,0.135,0.794,-0.48,46.372
'0:00.379',-52.174,1377.395,-6.221,1.297,1.229,1.029,-1.451,9.387,0.82,-1.505,9.257,0.135,0.794,-0.48,46.376
'0:00.383',104.455,1377.054,-5.772,1.217,1.102,0.992,-1.464,9.337,0.839,-1.525,9.247,0.128,0.798,-0.484,46.38
'0:00.387',106.349,1376.688,-5.273,0.813,0.899,0.907,-1.416,9.204,0.754,-1.478,9.07,0.13,0.798,-0.494,46.384
'0:00.391',55.402,1376.371,-5.159,-0.103,0.817,0.847,-1.32,9.108,0.716,-1.38,9.071,0.128,0.801,-0.486,46.388
'0:00.395',52.174,1376.207,-4.75,-0.771,0.588,0.835,-1.26,9.085,0.659,-1.343,8.953,0.149,0.789,-0.545,46.392
'0:00.398',81.275,1376.263,-4.371,-0.658,0.641,0.811,-1.236,9.085,0.611,-1.284,8.923,0.154,0.787,-0.551,46.396
'0:00.402',35.983,1376.569,-3.811,-0.771,0.435,0.81,-1.296,9.096,0.64,-1.333,8.953,0.154,0.787,-0.551,46.4
'0:00.406',-4.455,1377.082,-3.475,-0.54,0.423,0.81,-1.356,9.095,0.65,-1.353,8.913,0.149,0.787,-0.545,46.404
'0:00.410',-34.916,1377.705,-2.98,-0.559,0.311,0.821,-1.428,9.082,0.649,-1.401,8.942,0.149,0.783,-0.54,46.407
'0:00.414',3.628,1378.395,-2.349,-0.752,-0.052,0.76,-1.44,9.02,0.601,-1.43,8.902,0.151,0.783,-0.549,46.411
'0:00.418',40.571,1379.19,-2.013,-1.536,-0.322,0.638,-1.379,8.923,0.516,-1.459,8.832,0.153,0.782,-0.547,46.415
'0:00.422',28.968,1380.152,-1.724,-2.523,-0.022,0.541,-1.282,8.875,0.401,-1.341,8.782,0.149,0.785,-0.549,46.419
'0:00.426',167.272,1381.263,-0.917,-3.002,0.322,0.48,-1.232,8.899,0.324,-1.272,8.772,0.147,0.78,-0.526,46.423
'0:00.430',214.992,1382.389,-0.517,-3.172,0.259,0.541,-1.243,8.984,0.343,-1.272,8.792,0.147,0.78,-0.526,46.427
'0:00.434',195.04,1383.42,0.068,-3.472,-0.146,0.663,-1.305,9.082,0.438,-1.321,8.881,0.153,0.787,-0.549,46.431
'0:00.438',148.414,1384.344,0.779,-3.627,-0.881,0.821,-1.414,9.191,0.534,-1.36,8.941,0.139,0.787,-0.517,46.435
'0:00.441',74.82,1385.138,1.447,-3.345,-1.342,0.931,-1.475,9.288,0.687,-1.418,9.089,0.151,0.782,-0.551,46.439
'0:00.445',-1.227,1385.7,1.989,-3.031,-2.061,0.955,-1.474,9.361,0.715,-1.447,9.109,0.153,0.782,-0.542,46.443
'0:00.449',-85.063,1385.874,2.389,-2.326,-2.14,0.931,-1.412,9.422,0.743,-1.465,9.217,0.149,0.785,-0.551,46.446
'0:00.453',-94.212,1385.557,3.728,-1.311,-2.009,0.895,-1.399,9.458,0.723,-1.414,9.324,0.149,0.785,-0.551,46.45
'0:00.457',7.949,1384.818,4.383,-0.874,-2.271,0.87,-1.386,9.446,0.704,-1.414,9.324,0.149,0.783,-0.547,46.454
'0:00.461',117.685,1383.88,4.731,-1.099,-2.241,0.833,-1.374,9.409,0.685,-1.444,9.255,0.147,0.783,-0.542,46.458
'0:00.465',83.703,1382.929,5.464,-1.085,-2.792,0.834,-1.375,9.361,0.627,-1.452,9.283,0.149,0.783,-0.545,46.462
'0:00.469',6.882,1381.974,6.609,-1.151,-3.043,0.809,-1.363,9.349,0.638,-1.425,9.215,0.144,0.785,-0.54,46.466
'0:00.473',-57.029,1380.971,7.058,-1.189,-3.448,0.809,-1.376,9.312,0.657,-1.397,9.157,0.149,0.789,-0.542,46.47
'0:00.477',-78.581,1379.936,7.979,-1.461,-3.86,0.846,-1.377,9.276,0.619,-1.386,9.166,0.153,0.787,-0.545,46.474
'0:00.480',-64.578,1378.946,8.32,-2.542,-4.235,0.846,-1.343,9.18,0.658,-1.38,9.05,0.153,0.787,-0.545,46.478
'0:00.484',36.25,1378.099,8.847,-3.613,-4.366,0.847,-1.284,9.109,0.678,-1.333,8.953,0.147,0.785,-0.542,46.482
'0:00.488',211.231,1377.601,9.047,-3.975,-4.673,0.86,-1.237,9.098,0.669,-1.275,8.953,0.151,0.783,-0.542,46.486
'0:00.492',189.118,1377.705,9.518,-3.895,-4.62,0.921,-1.249,9.159,0.659,-1.265,8.944,0.146,0.783,-0.542,46.489
'0:00.496',65.111,1378.542,9.903,-3.768,-4.999,1.067,-1.287,9.209,0.861,-1.258,9.006,0.165,0.789,-0.517,46.493
'0:00.500',72.927,1380.012,10.334,-3.322,-5.625,1.189,-1.361,9.282,0.956,-1.354,9.143,0.147,0.787,-0.545,46.497
'0:00.504',150.841,1381.776,10.623,-2.824,-5.853,1.274,-1.374,9.331,1.014,-1.434,9.085,0.147,0.79,-0.54,46.501
'0:00.508',69.699,1383.361,10.601,-2.5,-5.782,1.275,-1.302,9.32,1.072,-1.347,9.087,0.151,0.79,-0.54,46.505
'0:00.512',-33.289,1384.354,10.761,-2.298,-5.617,1.215,-1.193,9.309,1.091,-1.309,9.087,0.144,0.787,-0.542,46.509
'0:00.516',-34.649,1384.584,10.712,-1.889,-5.284,1.155,-1.143,9.309,0.994,-1.199,9.174,0.147,0.785,-0.536,46.513
'0:00.520',-7.415,1384.107,10.897,-1.884,-4.995,1.106,-1.118,9.321,0.965,-1.13,9.165,0.126,0.799,-0.478,46.517
'0:00.523',26.567,1383.142,10.989,-2.175,-5.04,1.081,-1.117,9.357,0.945,-1.128,9.252,0.125,0.803,-0.484,46.521
'0:00.527',120.646,1382.044,11.088,-2.251,-5.13,1.081,-1.188,9.38,0.936,-1.157,9.262,0.126,0.808,-0.478,46.525
'0:00.531',164.845,1381.176,11.485,-2.664,-5.149,1.068,-1.223,9.415,0.945,-1.216,9.242,0.126,0.808,-0.478,46.529
'0:00.535',188.851,1380.748,11.528,-3.106,-5.081,1.044,-1.211,9.403,0.907,-1.235,9.241,0.125,0.805,-0.482,46.532
'0:00.539',224.968,1380.671,11.669,-3.942,-4.857,1.02,-1.163,9.392,0.859,-1.204,9.25,0.125,0.803,-0.478,46.536
'0:00.543',225.795,1380.615,11.436,-4.544,-4.523,1.008,-1.126,9.428,0.792,-1.175,9.181,0.118,0.803,-0.473,46.54
'0:00.547',264.605,1380.166,11.445,-4.558,-4.369,1.032,-1.126,9.453,0.82,-1.213,9.288,0.121,0.805,-0.467,46.544
'0:00.551',272.688,1379.03,11.282,-4.581,-4.197,1.068,-1.185,9.537,0.868,-1.184,9.309,0.128,0.799,-0.471,46.548
'0:00.555',128.995,1377.151,11.408,-4.699,-3.965,1.128,-1.27,9.585,0.925,-1.261,9.407,0.118,0.806,-0.473,46.552
'0:00.559',50.014,1374.761,11.38,-4.121,-4.002,1.153,-1.305,9.633,0.982,-1.29,9.447,0.118,0.806,-0.473,46.556
'0:00.563',152.441,1372.318,11.522,-3.928,-3.826,1.165,-1.317,9.669,0.963,-1.348,9.436,0.123,0.81,-0.467,46.56
'0:00.566',73.993,1370.314,11.312,-3.655,-3.316,1.116,-1.303,9.705,0.924,-1.347,9.475,0.121,0.805,-0.469,46.564
'0:00.570',6.615,1369.091,11.543,-3.801,-3.043,1.104,-1.28,9.669,0.924,-1.337,9.494,0.119,0.806,-0.469,46.568
'0:00.574',66.445,1368.708,11.26,-3.684,-2.623,1.043,-1.242,9.645,0.886,-1.308,9.455,0.119,0.806,-0.471,46.571
'0:00.578',126.034,1368.959,11.371,-4.045,-2.391,0.982,-1.218,9.62,0.847,-1.288,9.445,0.119,0.803,-0.465,46.575
'0:00.582',98.533,1369.492,11.294,-4.407,-2.14,0.958,-1.194,9.572,0.751,-1.306,9.452,0.119,0.803,-0.465,46.579
'0:00.586',92.612,1369.976,11.008,-4.858,-1.896,0.946,-1.194,9.559,0.732,-1.257,9.433,0.119,0.806,-0.465,46.583
'0:00.590',103.388,1370.231,11.122,-5.328,-1.724,0.946,-1.182,9.548,0.761,-1.189,9.444,0.116,0.806,-0.463,46.587
'0:00.594',126.301,1370.262,10.903,-5.479,-1.641,0.946,-1.158,9.56,0.799,-1.18,9.445,0.119,0.806,-0.461,46.591
'0:00.598',187.491,1370.109,10.869,-5.77,-1.589,0.946,-1.133,9.573,0.771,-1.189,9.454,0.116,0.808,-0.465,46.595
'0:00.602',148.947,1369.774,10.475,-5.925,-1.641,0.971,-1.098,9.562,0.732,-1.131,9.405,0.119,0.805,-0.465,46.599
'0:00.605',-25.207,1369.251,10.417,-6.254,-1.405,0.971,-1.063,9.526,0.713,-1.082,9.415,0.116,0.81,-0.465,46.603
'0:00.609',-90.985,1368.628,9.912,-6.287,-1.413,0.972,-1.027,9.527,0.8,-1.035,9.426,0.116,0.81,-0.465,46.607
'0:00.613',-141.932,1368.073,9.512,-6.503,-1.034,1.009,-0.968,9.504,0.81,-1.027,9.348,0.114,0.808,-0.457,46.611
'0:00.617',-108.776,1367.645,9.084,-6.719,-1.068,1.034,-0.92,9.505,0.848,-1.026,9.417,0.118,0.808,-0.459,46.614
'0:00.621',-117.419,1367.23,8.785,-6.926,-1.199,1.071,-0.885,9.53,0.896,-0.96,9.37,0.111,0.81,-0.463,46.618
'0:00.625',-112.564,1366.697,8.336,-6.747,-1.334,1.108,-0.873,9.555,0.973,-0.951,9.401,0.112,0.806,-0.457,46.622
'0:00.629',-34.649,1365.972,7.945,-6.686,-1.465,1.182,-0.85,9.581,0.992,-0.921,9.479,0.116,0.812,-0.444,46.626
'0:00.633',-4.188,1364.975,6.904,-5.662,-1.986,1.206,-0.91,9.617,1.002,-0.931,9.46,0.116,0.812,-0.444,46.63
'0:00.637',-87.224,1363.676,6.433,-5.619,-2.069,1.242,-0.947,9.641,1.136,-0.991,9.481,0.111,0.808,-0.459,46.634
'0:00.641',-132.249,1362.247,6.243,-5.15,-2.196,1.242,-0.982,9.664,1.078,-1.019,9.509,0.114,0.812,-0.461,46.638
'0:00.645',-120.646,1360.982,5.732,-4.882,-2.361,1.229,-1.03,9.651,1.059,-1.038,9.509,0.112,0.812,-0.455,46.642
'0:00.648',-138.704,1360.09,5.442,-4.722,-2.664,1.168,-1.053,9.626,1.02,-1.115,9.498,0.104,0.815,-0.455,46.646
'0:00.652',-140.065,1359.574,4.981,-5.258,-2.619,1.119,-1.042,9.54,1.03,-1.076,9.537,0.107,0.815,-0.455,46.65
'0:00.656',-103.388,1359.33,4.494,-5.488,-2.638,1.058,-1.005,9.492,0.925,-1.067,9.418,0.107,0.812,-0.463,46.654
'0:00.660',-21.979,1359.24,4.587,-5.474,-2.687,0.984,-1.028,9.478,0.829,-1.027,9.349,0.107,0.812,-0.463,46.657
'0:00.664',124.674,1359.184,4.196,-5.399,-2.773,0.947,-1.039,9.502,0.82,-1.008,9.319,0.114,0.813,-0.45,46.661
'0:00.668',30.328,1359.079,4.122,-5.432,-2.833,0.935,-1.061,9.562,0.8,-1.094,9.396,0.107,0.81,-0.448,46.665
'0:00.672',-93.145,1358.971,3.922,-5.164,-3.08,0.959,-1.074,9.562,0.809,-1.084,9.436,0.105,0.813,-0.455,46.669
'0:00.676',-203.149,1358.971,3.737,-5.309,-3.35,0.947,-1.085,9.61,0.809,-1.122,9.465,0.107,0.812,-0.45,46.673
'0:00.680',-277.542,1359.107,3.94,-5.526,-3.414,0.898,-1.084,9.597,0.77,-1.14,9.503,0.107,0.806,-0.446,46.677
'0:00.684',-296.161,1359.389,3.879,-5.709,-3.41,0.837,-1.071,9.584,0.722,-1.129,9.541,0.107,0.812,-0.455,46.681
'0:00.688',-244.386,1359.877,3.789,-5.619,-3.455,0.812,-1.047,9.512,0.607,-1.08,9.442,0.111,0.812,-0.455,46.685
'0:00.691',-147.88,1360.595,3.808,-5.634,-3.515,0.788,-1.036,9.475,0.617,-1.1,9.413,0.102,0.812,-0.453,46.689
'0:00.695',-117.419,1361.466,3.897,-5.685,-3.762,0.825,-1.024,9.476,0.617,-1.052,9.374,0.118,0.815,-0.453,46.693
'0:00.699',-109.603,1362.411,4.285,-6.179,-4.471,0.789,-0.999,9.5,0.579,-1.062,9.364,0.102,0.815,-0.45,46.696
'0:00.703',-106.616,1363.439,4.617,-6.268,-4.381,0.813,-0.976,9.489,0.617,-1.042,9.394,0.104,0.813,-0.446,46.7
'0:00.707',-96.933,1364.575,4.679,-6.249,-5.291,0.826,-0.952,9.465,0.637,-0.994,9.385,0.098,0.817,-0.453,46.704
'0:00.711',-72.66,1365.805,4.873,-6.099,-5.464,0.875,-0.942,9.442,0.685,-0.995,9.386,0.098,0.817,-0.453,46.708
'0:00.715',-70.766,1367.056,5.285,-5.944,-6.071,0.924,-0.92,9.407,0.733,-0.988,9.289,0.098,0.815,-0.446,46.712
'0:00.719',-117.419,1368.185,5.402,-5.619,-6.539,0.961,-0.945,9.371,0.801,-0.969,9.329,0.1,0.812,-0.448,46.716
'0:00.723',-128.462,1369.101,5.596,-5.657,-7.326,1.01,-0.96,9.31,0.849,-0.971,9.262,0.104,0.812,-0.453,46.72
'0:00.727',-35.983,1369.833,5.738,-5.126,-7.982,1.022,-0.925,9.251,0.85,-0.962,9.232,0.098,0.81,-0.446,46.724
'0:00.730',7.415,1370.457,5.679,-5.262,-8.593,1.023,-0.914,9.19,0.85,-0.915,9.164,0.1,0.815,-0.446,46.728
'0:00.734',-75.354,1371.011,5.667,-4.858,-8.937,0.998,-0.878,9.142,0.812,-0.906,9.076,0.104,0.815,-0.448,46.732
'0:00.738',-131.956,1371.419,5.596,-4.558,-9.586,0.999,-0.879,9.13,0.861,-0.869,9.028,0.104,0.815,-0.448,46.736
'0:00.742',-158.656,1371.562,5.528,-3.834,-10.073,1.023,-0.854,9.179,0.831,-0.897,9.076,0.098,0.819,-0.442,46.739
'0:00.746',-180.236,1371.325,5.424,-3.125,-10.403,1.06,-0.854,9.228,0.841,-0.877,9.086,0.097,0.813,-0.444,46.743
'0:00.750',-164.311,1370.677,5.285,-2.298,-10.95,1.121,-0.879,9.265,0.917,-0.925,9.195,0.093,0.815,-0.444,46.747
'0:00.754',-103.121,1369.722,5.076,-0.827,-11.351,1.145,-0.914,9.325,0.926,-0.876,9.244,0.091,0.815,-0.442,46.751
'0:00.758',-72.927,1368.673,5.141,0.136,-11.95,1.145,-0.901,9.398,0.955,-0.886,9.245,0.093,0.817,-0.448,46.755
'0:00.762',18.725,1367.749,4.885,0.86,-12.325,1.17,-0.877,9.447,0.983,-0.914,9.342,0.093,0.817,-0.448,46.759
'0:00.766',28.968,1367.15,4.894,2.218,-12.512,1.169,-0.888,9.471,0.993,-0.933,9.362,0.1,0.819,-0.442,46.763
'0:00.770',-18.458,1367.052,4.993,2.857,-12.662,1.157,-0.887,9.52,0.992,-0.893,9.401,0.091,0.817,-0.44,46.767
'0:00.773',-140.332,1367.547,5.116,3.359,-12.64,1.157,-0.863,9.52,0.983,-0.873,9.431,0.09,0.815,-0.446,46.771
'0:00.777',-230.916,1368.628,5.141,3.905,-12.816,1.146,-0.839,9.52,0.954,-0.882,9.44,0.097,0.817,-0.44,46.775
'0:00.781',-212.031,1370.21,5.304,3.876,-13.341,1.158,-0.791,9.497,0.925,-0.804,9.42,0.095,0.819,-0.442,46.779
'0:00.785',-188.851,1372.067,5.353,3.923,-13.359,1.134,-0.756,9.449,0.945,-0.805,9.382,0.093,0.817,-0.438,46.782
'0:00.789',-103.922,1373.907,5.264,3.905,-13.434,1.098,-0.695,9.437,0.955,-0.759,9.275,0.093,0.817,-0.438,46.786
'0:00.793',-106.882,1375.548,4.953,3.876,-13.303,1.123,-0.636,9.403,0.945,-0.7,9.324,0.09,0.819,-0.44,46.79
'0:00.797',-129.529,1376.953,4.897,3.942,-13.168,1.136,-0.624,9.415,0.936,-0.642,9.305,0.09,0.817,-0.438,46.794
'0:00.801',-130.889,1378.036,4.845,4.041,-13.015,1.16,-0.625,9.403,0.935,-0.612,9.344,0.091,0.819,-0.438,46.798
'0:00.805',-162.151,1378.563,4.793,3.811,-12.887,1.184,-0.638,9.391,0.936,-0.641,9.334,0.088,0.817,-0.438,46.802
'0:00.809',-155.696,1378.273,4.562,4.097,-12.595,1.221,-0.651,9.392,1.003,-0.653,9.296,0.088,0.819,-0.44,46.806
'0:00.813',-86.397,1377.12,4.497,4.29,-12.243,1.245,-0.699,9.379,1.042,-0.693,9.257,0.088,0.819,-0.44,46.81
'0:00.816',-58.096,1375.35,4.242,4.125,-11.992,1.258,-0.665,9.307,1.09,-0.683,9.297,0.091,0.822,-0.436,46.814
'0:00.820',-77.514,1373.388,3.891,3.895,-11.444,1.246,-0.641,9.271,1.081,-0.665,9.239,0.088,0.813,-0.44,46.818
'0:00.824',-146.787,1371.624,3.983,3.153,-11.141,1.221,-0.666,9.186,1.034,-0.696,9.091,0.095,0.817,-0.432,46.821
'0:00.828',-147.88,1370.234,3.762,2.735,-10.732,1.209,-0.631,9.15,0.976,-0.666,9.061,0.1,0.819,-0.419,46.825
'0:00.832',-110.403,1369.237,3.989,2.594,-10.429,1.209,-0.631,9.15,0.995,-0.656,9.101,0.091,0.824,-0.432,46.829
'0:00.836',-69.432,1368.673,3.792,2.138,-10.17,1.222,-0.619,9.174,1.015,-0.677,9.032,0.091,0.817,-0.434,46.833
'0:00.840',-0.4,1368.621,3.608,1.936,-9.844,1.271,-0.608,9.175,1.043,-0.628,9.072,0.091,0.817,-0.434,46.837
'0:00.844',47.32,1369.025,3.411,1.673,-9.297,1.308,-0.596,9.224,1.091,-0.638,9.132,0.095,0.819,-0.432,46.841
'0:00.848',29.261,1369.614,3.398,1.762,-8.791,1.344,-0.608,9.261,1.158,-0.658,9.152,0.086,0.824,-0.436,46.845
'0:00.852',-88.024,1370.028,3.189,1.743,-8.312,1.368,-0.655,9.321,1.158,-0.657,9.221,0.09,0.821,-0.43,46.849
'0:00.855',-105.015,1370.077,3.235,1.959,-7.746,1.404,-0.727,9.356,1.235,-0.678,9.183,0.086,0.815,-0.432,46.853
'0:00.859',-105.015,1369.826,3.389,1.837,-7.15,1.453,-0.728,9.381,1.206,-0.717,9.182,0.093,0.819,-0.432,46.857
'0:00.863',-115.258,1369.446,3.401,1.527,-6.79,1.416,-0.763,9.38,1.244,-0.744,9.29,0.093,0.819,-0.43,46.861
'0:00.867',-75.621,1369.098,3.318,0.912,-6.397,1.379,-0.763,9.38,1.234,-0.783,9.27,0.091,0.821,-0.43,46.864
'0:00.871',-35.983,1368.959,3.574,0.926,-5.756,1.355,-0.738,9.392,1.177,-0.734,9.25,0.084,0.828,-0.434,46.868
'0:00.875',-31.128,1369.164,3.577,0.489,-5.52,1.318,-0.725,9.392,1.147,-0.713,9.298,0.09,0.819,-0.434,46.872
'0:00.879',-79.675,1369.687,3.703,0.122,-4.991,1.294,-0.7,9.404,1.128,-0.752,9.297,0.091,0.817,-0.432,46.876
'0:00.883',-130.622,1370.321,3.792,-0.404,-4.665,1.306,-0.712,9.416,1.129,-0.753,9.239,0.086,0.822,-0.432,46.88
'0:00.887',-164.845,1370.886,3.817,-1.052,-4.287,1.318,-0.724,9.416,1.148,-0.733,9.269,0.091,0.819,-0.434,46.884
'0:00.891',-140.065,1371.346,3.999,-1.433,-4.223,1.33,-0.748,9.44,1.185,-0.732,9.367,0.091,0.819,-0.434,46.888
'0:00.895',-107.709,1371.739,4.316,-1.959,-3.897,1.33,-0.748,9.464,1.147,-0.761,9.356,0.084,0.821,-0.432,46.892
'0:00.898',-68.072,1371.987,4.528,-1.931,-3.579,1.33,-0.76,9.452,1.166,-0.78,9.395,0.084,0.819,-0.43,46.896
'0:00.902',-93.145,1371.942,4.571,-1.983,-3.211,1.342,-0.785,9.439,1.185,-0.82,9.347,0.088,0.817,-0.427,46.9
'0:00.906',-155.962,1371.537,4.587,-2.237,-2.975,1.379,-0.798,9.403,1.224,-0.84,9.318,0.086,0.813,-0.436,46.904
'0:00.910',-183.463,1370.788,4.71,-2.786,-2.942,1.354,-0.799,9.318,1.225,-0.863,9.181,0.09,0.822,-0.427,46.907
'0:00.914',-142.759,1369.781,4.984,-3.284,-2.661,1.342,-0.775,9.306,1.186,-0.851,9.229,0.09,0.824,-0.425,46.911
'0:00.918',-106.616,1368.767,4.762,-3.67,-2.807,1.293,-0.761,9.33,1.138,-0.773,9.209,0.079,0.824,-0.425,46.915
'0:00.922',-94.772,1368.084,5.067,-3.486,-2.814,1.306,-0.749,9.355,1.167,-0.792,9.239,0.088,0.819,-0.427,46.919
'0:00.926',-89.918,1367.924,4.836,-3.557,-3.024,1.318,-0.738,9.343,1.167,-0.772,9.278,0.088,0.822,-0.432,46.923
'0:00.930',-87.49,1368.178,4.802,-3.858,-2.975,1.282,-0.69,9.295,1.148,-0.726,9.161,0.083,0.821,-0.434,46.927
'0:00.934',-33.556,1368.561,4.879,-4.365,-2.998,1.21,-0.617,9.259,1.081,-0.686,9.131,0.086,0.821,-0.419,46.931
'0:00.938',-42.198,1368.837,4.497,-4.417,-2.698,1.124,-0.555,9.222,0.995,-0.598,9.111,0.091,0.822,-0.43,46.935
'0:00.941',-86.957,1368.938,4.202,-4.633,-2.601,1.076,-0.505,9.271,0.918,-0.5,9.091,0.091,0.822,-0.43,46.939
'0:00.945',-66.445,1368.854,4.291,-4.294,-2.544,1.052,-0.504,9.307,0.908,-0.527,9.178,0.088,0.821,-0.423,46.943
'0:00.949',33.823,1368.596,3.946,-4.031,-2.417,1.064,-0.515,9.355,0.889,-0.507,9.188,0.081,0.821,-0.423,46.946
'0:00.953',218.246,1368.216,3.798,-4.102,-2.769,1.027,-0.49,9.368,0.85,-0.526,9.187,0.086,0.821,-0.421,46.95
'0:00.957',326.062,1367.732,3.417,-4.285,-2.792,1.027,-0.442,9.368,0.821,-0.516,9.187,0.084,0.819,-0.432,46.954
'0:00.961',425.556,1367.126,2.866,-4.576,-2.777,0.979,-0.417,9.38,0.811,-0.514,9.255,0.095,0.824,-0.421,46.958
'0:00.965',425.289,1366.439,2.727,-4.384,-2.484,0.979,-0.428,9.404,0.811,-0.474,9.333,0.084,0.824,-0.421,46.962
'0:00.969',338.199,1365.819,2.339,-3.9,-2.623,0.978,-0.464,9.428,0.83,-0.434,9.383,0.084,0.824,-0.421,46.966
'0:00.973',282.13,1365.348,2.186,-2.89,-2.589,1.014,-0.524,9.488,0.839,-0.463,9.422,0.083,0.822,-0.427,46.97
'0:00.977',254.363,1365.042,2.044,-2.255,-2.84,1.038,-0.572,9.511,0.897,-0.572,9.383,0.086,0.821,-0.423,46.974
'0:00.980',185.064,1364.937,2.158,-1.583,-2.975,1.074,-0.681,9.51,0.896,-0.6,9.422,0.084,0.822,-0.421,46.978
'0:00.984',134.943,1365.056,2.269,-0.954,-3.309,1.086,-0.729,9.533,0.887,-0.698,9.382,0.084,0.817,-0.43,46.982
'0:00.988',125.234,1365.265,2.238,-0.23,-3.286,1.048,-0.8,9.532,0.829,-0.784,9.38,0.079,0.821,-0.419,46.986
'0:00.992',67.272,1365.31,2.139,0.24,-3.448,1.035,-0.848,9.519,0.886,-0.811,9.527,0.079,0.821,-0.419,46.989
'0:00.996',13.604,1365.07,2.761,0.315,-3.98,1.047,-0.861,9.47,0.935,-0.882,9.41,0.086,0.813,-0.421,46.993
'0:01.000',-34.383,1364.7,3.007,0.517,-4.587,1.071,-0.934,9.469,0.896,-0.921,9.399,0.086,0.828,-0.423,46.997
'0:01.004',-72.126,1364.515,3.34,0.094,-4.819,1.071,-0.971,9.408,0.887,-0.913,9.302,0.081,0.826,-0.419,47.001
'0:01.008',-57.562,1364.791,3.374,-0.667,-5.407,1.083,-0.937,9.324,0.907,-0.963,9.214,0.081,0.817,-0.423,47.005
'0:01.012',-54.335,1365.655,3.18,-1.278,-5.778,1.072,-0.879,9.216,0.879,-0.955,9.106,0.083,0.822,-0.421,47.009
'0:01.016',-70.766,1367.045,3.029,-1.63,-5.82,1.073,-0.807,9.193,0.937,-0.84,9.079,0.084,0.826,-0.425,47.013
'0:01.020',-109.87,1368.68,2.93,-1.48,-5.988,1.085,-0.758,9.255,0.918,-0.83,9.108,0.084,0.826,-0.425,47.017
'0:01.023',-83.436,1370.15,2.857,-0.987,-6.314,1.196,-0.747,9.353,0.965,-0.77,9.197,0.086,0.821,-0.421,47.021
'0:01.027',-46.226,1371.151,2.817,-0.155,-6.756,1.306,-0.747,9.5,1.051,-0.751,9.267,0.086,0.831,-0.417,47.025
'0:01.031',-46.519,1371.642,2.592,0.677,-7.12,1.379,-0.77,9.646,1.185,-0.77,9.425,0.079,0.815,-0.423,47.029
'0:01.035',-24.407,1371.827,2.192,1.25,-7.349,1.391,-0.792,9.742,1.183,-0.767,9.591,0.081,0.819,-0.421,47.032
'0:01.039',-40.571,1371.924,1.995,1.494,-7.349,1.354,-0.766,9.779,1.164,-0.804,9.649,0.084,0.824,-0.421,47.036
'0:01.043',-45.426,1371.962,1.656,0.963,-7.06,1.27,-0.645,9.743,1.155,-0.737,9.601,0.084,0.824,-0.421,47.04
'0:01.047',-44.092,1371.82,1.176,0.197,-6.64,1.173,-0.536,9.683,1.097,-0.649,9.571,0.077,0.822,-0.419,47.044
'0:01.051',-18.192,1371.405,0.603,-0.174,-6.164,1.101,-0.427,9.648,0.944,-0.512,9.501,0.077,0.822,-0.421,47.048
'0:01.055',2.294,1370.684,0.422,-0.63,-5.958,1.089,-0.378,9.649,0.925,-0.453,9.492,0.081,0.822,-0.417,47.052
'0:01.059',-8.216,1369.642,-0.043,-0.912,-6.116,1.175,-0.38,9.638,0.963,-0.434,9.551,0.084,0.819,-0.423,47.056
'0:01.063',-8.216,1368.373,-0.459,-1.024,-6.337,1.272,-0.418,9.663,1.079,-0.465,9.504,0.081,0.821,-0.417,47.06
'0:01.066',-8.776,1367.185,-0.668,-0.545,-6.153,1.382,-0.468,9.688,1.156,-0.457,9.515,0.081,0.821,-0.419,47.064
'0:01.070',-4.188,1366.491,-1.253,-0.07,-6.074,1.455,-0.542,9.711,1.251,-0.535,9.575,0.081,0.821,-0.419,47.068
'0:01.074',14.697,1366.565,-1.761,0.865,-6.003,1.466,-0.59,9.723,1.251,-0.574,9.584,0.079,0.819,-0.415,47.071
'0:01.078',-7.949,1367.39,-2.398,1.292,-5.49,1.405,-0.613,9.697,1.251,-0.584,9.564,0.077,0.822,-0.421,47.075
'0:01.082',-34.916,1368.729,-2.786,1.363,-5.1,1.319,-0.624,9.635,1.165,-0.661,9.504,0.079,0.819,-0.423,47.079
'0:01.086',-51.641,1370.297,-3.174,1.02,-4.673,1.233,-0.636,9.549,1.088,-0.67,9.493,0.077,0.817,-0.421,47.083
'0:01.090',-68.605,1371.921,-3.435,1.076,-4.332,1.159,-0.683,9.523,0.993,-0.699,9.413,0.079,0.821,-0.421,47.087
'0:01.094',-38.144,1373.517,-3.592,1.189,-4.01,1.11,-0.73,9.51,0.944,-0.688,9.451,0.079,0.822,-0.421,47.091
'0:01.098',2.294,1374.911,-3.743,1.142,-4.021,1.097,-0.766,9.497,0.916,-0.736,9.411,0.079,0.822,-0.421,47.095
'0:01.102',41.105,1375.803,-3.42,1.283,-4.043,1.109,-0.801,9.545,0.944,-0.785,9.421,0.079,0.828,-0.415,47.099
'0:01.105',59.723,1375.946,-3.454,1.541,-3.983,1.121,-0.849,9.556,0.925,-0.873,9.4,0.079,0.824,-0.419,47.103
'0:01.109',61.323,1375.374,-3.374,2.002,-3.47,1.12,-0.885,9.58,0.934,-0.93,9.439,0.079,0.817,-0.425,47.107
'0:01.113',60.523,1374.409,-3.207,2.377,-3.2,1.095,-0.932,9.578,0.886,-0.919,9.458,0.083,0.819,-0.421,47.111
'0:01.117',53.508,1373.506,-2.906,2.594,-3.088,1.071,-0.921,9.542,0.886,-0.918,9.507,0.077,0.826,-0.421,47.114
'0:01.121',44.625,1372.997,-2.515,2.575,-2.694,1.022,-0.909,9.457,0.848,-0.89,9.467,0.077,0.826,-0.421,47.118
'0:01.125',45.159,1373.022,-2.253,2.002,-2.458,1.011,-0.874,9.372,0.858,-0.931,9.34,0.081,0.822,-0.427,47.122
'0:01.129',74.26,1373.607,-2.115,1.226,-2.203,1.023,-0.84,9.301,0.85,-0.856,9.214,0.081,0.821,-0.432,47.126
'0:01.133',133.316,1374.715,-1.631,1.132,-2.35,1.109,-0.83,9.29,0.859,-0.836,9.224,0.086,0.819,-0.421,47.13
'0:01.137',159.723,1376.252,-1.533,0.883,-2.47,1.195,-0.796,9.28,0.937,-0.81,9.157,0.081,0.819,-0.419,47.134
'0:01.141',127.101,1378.019,-1.259,0.695,-2.751,1.294,-0.751,9.233,0.985,-0.84,9.148,0.083,0.822,-0.423,47.138
'0:01.145',133.316,1379.678,-1.496,0.357,-3.204,1.356,-0.705,9.211,1.1,-0.744,9.16,0.081,0.817,-0.423,47.142
'0:01.148',172.127,1380.873,-1.613,0.357,-3.309,1.356,-0.62,9.249,1.139,-0.697,9.122,0.081,0.817,-0.423,47.146
'0:01.152',175.381,1381.445,-1.949,0.616,-3.29,1.394,-0.548,9.323,1.206,-0.581,9.173,0.077,0.821,-0.423,47.15
'0:01.156',172.687,1381.497,-2.158,1.095,-3.077,1.443,-0.536,9.36,1.235,-0.58,9.222,0.077,0.815,-0.425,47.154
'0:01.160',193.439,1381.302,-2.253,1.64,-2.717,1.529,-0.525,9.422,1.273,-0.571,9.253,0.091,0.822,-0.411,47.157
'0:01.164',183.196,1381.079,-2.426,2.016,-2.964,1.553,-0.524,9.471,1.349,-0.532,9.322,0.079,0.824,-0.425,47.161
'0:01.168',219.046,1380.831,-2.912,2.673,-2.428,1.528,-0.547,9.507,1.369,-0.533,9.293,0.077,0.817,-0.427,47.165
'0:01.172',251.135,1380.396,-3.3,3.331,-2.305,1.504,-0.582,9.53,1.311,-0.579,9.37,0.077,0.817,-0.427,47.169
'0:01.176',248.441,1379.608,-3.651,5.074,-1.124,1.454,-0.628,9.577,1.271,-0.654,9.447,0.081,0.817,-0.425,47.173
'0:01.180',242.759,1378.402,-3.561,5.934,-0.555,1.404,-0.685,9.672,1.232,-0.672,9.505,0.083,0.819,-0.421,47.177
'0:01.184',251.668,1376.838,-3.404,6.362,-0.011,1.354,-0.743,9.743,1.174,-0.698,9.631,0.084,0.817,-0.427,47.181
'0:01.188',236.571,1375.088,-3.238,6.315,0.57,1.305,-0.815,9.717,1.173,-0.746,9.65,0.081,0.822,-0.425,47.185
'0:01.191',233.61,1373.433,-3.207,5.887,1.177,1.28,-0.839,9.667,1.116,-0.862,9.638,0.083,0.821,-0.421,47.189
'0:01.195',230.089,1372.151,-2.832,5.328,1.87,1.256,-0.852,9.582,1.126,-0.883,9.56,0.083,0.817,-0.427,47.193
'0:01.199',224.968,1371.381,-2.567,4.675,2.597,1.219,-0.853,9.473,1.041,-0.913,9.402,0.083,0.817,-0.427,47.196
'0:01.203',219.846,1371.022,-2.416,3.806,3.253,1.182,-0.879,9.363,0.974,-0.895,9.274,0.083,0.821,-0.43,47.2
'0:01.207',189.918,1370.847,-2.207,3.129,3.609,1.133,-0.891,9.277,0.956,-0.886,9.215,0.084,0.817,-0.425,47.204
'0:01.211',169.966,1370.628,-1.792,2.49,4.426,1.121,-0.879,9.253,0.879,-0.886,9.175,0.081,0.821,-0.427,47.208
'0:01.215',164.045,1370.3,-1.533,2.049,4.429,1.157,-0.904,9.265,0.937,-0.897,9.156,0.088,0.819,-0.432,47.212
'0:01.219',157.856,1369.976,-1.305,1.377,4.433,1.219,-0.881,9.279,1.042,-0.908,9.178,0.086,0.826,-0.423,47.216
'0:01.223',123.073,1369.833,-1.111,1.142,4.279,1.244,-0.857,9.279,1.081,-0.871,9.11,0.086,0.826,-0.423,47.22
'0:01.227',80.742,1370.004,-1.518,0.771,4.692,1.269,-0.799,9.208,1.072,-0.822,9.149,0.086,0.821,-0.427,47.224
'0:01.230',59.723,1370.537,-1.693,0.24,4.857,1.221,-0.739,9.148,0.995,-0.774,9.051,0.084,0.819,-0.423,47.228
'0:01.234',95.306,1371.377,-1.724,-0.075,5.707,1.148,-0.677,9.148,0.986,-0.715,9.041,0.088,0.821,-0.434,47.232
'0:01.238',116.858,1372.342,-1.927,0.023,6.4,1.124,-0.616,9.209,0.899,-0.636,9.041,0.088,0.815,-0.423,47.236
'0:01.242',87.49,1373.255,-1.958,0.329,6.397,1.124,-0.602,9.318,0.918,-0.636,9.08,0.084,0.819,-0.425,47.239
'0:01.246',84.796,1374.008,-1.887,0.874,6.771,1.173,-0.589,9.428,0.984,-0.594,9.286,0.086,0.821,-0.423,47.243
'0:01.250',94.479,1374.559,-1.884,1.085,6.738,1.197,-0.588,9.501,0.944,-0.63,9.422,0.086,0.821,-0.423,47.247
'0:01.254',62.15,1374.876,-2.558,1.344,7.33,1.222,-0.6,9.526,1.012,-0.621,9.414,0.088,0.817,-0.425,47.251
'0:01.258',52.708,1374.9,-2.875,1.344,7.843,1.258,-0.588,9.538,1.05,-0.602,9.444,0.09,0.819,-0.425,47.255
'0:01.262',40.571,1374.587,-3.324,1.508,8.263,1.282,-0.66,9.586,1.05,-0.631,9.473,0.083,0.819,-0.427,47.259
'0:01.266',36.25,1373.928,-3.922,1.461,8.859,1.294,-0.72,9.609,1.127,-0.691,9.454,0.084,0.817,-0.43,47.263
'0:01.270',29.261,1372.949,-4.214,1.193,9.174,1.269,-0.721,9.536,1.089,-0.739,9.404,0.088,0.815,-0.427,47.267
'0:01.273',28.434,1371.729,-5.245,0.944,9.642,1.209,-0.66,9.5,1.079,-0.691,9.385,0.09,0.821,-0.43,47.271
'0:01.277',19.285,1370.509,-6.227,0.677,9.998,1.198,-0.563,9.526,1.069,-0.661,9.434,0.09,0.821,-0.43,47.275
'0:01.281',8.749,1369.628,-6.858,0.226,10.384,1.198,-0.526,9.599,1.069,-0.602,9.464,0.091,0.819,-0.43,47.279
'0:01.285',20.886,1369.335,-7.622,-0.366,10.654,1.247,-0.502,9.673,0.973,-0.503,9.502,0.091,0.817,-0.438,47.282
'0:01.289',12.537,1369.683,-8.548,-0.409,10.852,1.272,-0.49,9.698,1.021,-0.513,9.522,0.086,0.815,-0.434,47.286
'0:01.293',11.47,1370.579,-9.952,-0.038,11.103,1.32,-0.514,9.722,1.049,-0.493,9.572,0.107,0.817,-0.421,47.29
'0:01.297',2.827,1371.886,-11.134,0.982,11.508,1.357,-0.539,9.759,1.174,-0.533,9.622,0.095,0.817,-0.434,47.294
'0:01.301',24.14,1373.538,-12.211,2.359,11.662,1.405,-0.598,9.867,1.183,-0.561,9.681,0.095,0.817,-0.434,47.298
'0:01.305',4.721,1375.486,-12.944,4.111,11.924,1.392,-0.668,9.938,1.202,-0.618,9.759,0.093,0.813,-0.432,47.302
'0:01.309',-1.76,1377.583,-13.756,6.085,11.973,1.343,-0.691,9.949,1.182,-0.626,9.836,0.093,0.815,-0.44,47.306
'0:01.313',12.003,1379.566,-14.452,7.63,12.164,1.281,-0.737,9.96,1.095,-0.732,9.795,0.095,0.817,-0.44,47.31
'0:01.316',0.934,1381.169,-15.265,8.495,12.486,1.17,-0.796,9.872,0.961,-0.78,9.724,0.097,0.817,-0.44,47.314
'0:01.320',22.513,1382.225,-16.019,8.786,12.602,1.011,-0.806,9.785,0.884,-0.846,9.722,0.097,0.821,-0.44,47.318
'0:01.324',35.983,1382.696,-16.499,8.138,12.973,0.888,-0.842,9.638,0.732,-0.866,9.553,0.105,0.812,-0.442,47.321
'0:01.328',30.062,1382.65,-16.936,7.165,13.164,0.753,-0.866,9.526,0.684,-0.857,9.474,0.105,0.812,-0.442,47.325
'0:01.332',-32.756,1382.25,-17.315,6.587,13.378,0.728,-0.913,9.513,0.55,-0.925,9.394,0.098,0.813,-0.444,47.329
'0:01.336',-41.665,1381.675,-17.62,6.522,13.108,0.764,-0.986,9.512,0.54,-0.944,9.403,0.102,0.819,-0.446,47.333
'0:01.340',-9.843,1381.033,-17.607,6.451,12.88,0.85,-1.023,9.549,0.617,-1.004,9.375,0.104,0.817,-0.448,47.337
'0:01.344',28.701,1380.281,-17.734,6.108,12.67,0.959,-1.062,9.55,0.752,-1.074,9.396,0.098,0.812,-0.444,47.341
'0:01.348',39.771,1379.291,-18.303,6.362,12.46,1.057,-1.125,9.526,0.819,-1.133,9.387,0.105,0.817,-0.446,47.345
'0:01.352',62.417,1377.998,-18.629,6.771,12.291,1.094,-1.091,9.467,0.867,-1.095,9.378,0.105,0.817,-0.446,47.349
'0:01.355',72.126,1376.524,-20.024,7.208,12.632,1.058,-1.019,9.407,0.877,-1.077,9.349,0.102,0.81,-0.453,47.353
'0:01.359',72.66,1375.172,-20.402,8.345,13.453,1.046,-0.946,9.444,0.878,-1,9.32,0.107,0.813,-0.45,47.357
'0:01.363',64.017,1374.255,-20.178,9.768,13.52,1.01,-0.908,9.517,0.867,-0.929,9.428,0.111,0.813,-0.461,47.361
'0:01.367',42.465,1374.019,-19.993,10.595,13.52,1.034,-0.907,9.602,0.896,-0.939,9.448,0.111,0.806,-0.457,47.364
'0:01.371',46.786,1374.597,-19.46,11.328,13.532,1.047,-0.906,9.639,0.857,-0.947,9.496,0.112,0.806,-0.463,47.368
'0:01.375',53.775,1375.994,-19.35,11.422,13.483,1.01,-0.93,9.614,0.828,-0.927,9.506,0.109,0.81,-0.459,47.372
'0:01.379',39.237,1378.099,-18.558,11.53,13.547,0.96,-0.99,9.563,0.799,-0.995,9.475,0.109,0.81,-0.459,47.376
'0:01.383',33.289,1380.664,-18.143,11.032,13.73,0.898,-1.038,9.465,0.78,-1.064,9.426,0.111,0.813,-0.465,47.38
'0:01.387',43.265,1383.354,-17.503,10.21,13.79,0.825,-1.063,9.33,0.723,-1.065,9.337,0.112,0.806,-0.467,47.384
'0:01.391',44.359,1385.916,-16.487,9.205,13.374,0.763,-1.088,9.22,0.638,-1.086,9.169,0.114,0.801,-0.471,47.388
'0:01.395',51.614,1388.257,-15.788,8.176,13.131,0.739,-1.113,9.134,0.581,-1.086,9.11,0.116,0.812,-0.463,47.392
'0:01.398',39.504,1390.383,-15.102,7.344,12.883,0.738,-1.174,9.085,0.563,-1.156,8.972,0.116,0.812,-0.463,47.396
'0:01.402',35.45,1392.282,-14.083,6.55,12.355,0.774,-1.236,9.036,0.573,-1.156,8.962,0.116,0.812,-0.463,47.4
'0:01.406',43.799,1393.941,-13.23,5.798,11.553,0.859,-1.287,9,0.65,-1.237,8.875,0.116,0.803,-0.467,47.404
'0:01.410',58.096,1395.352,-12.436,4.868,11.013,0.945,-1.325,8.964,0.727,-1.307,8.857,0.125,0.803,-0.471,47.407
'0:01.414',33.556,1396.475,-12.162,4.544,10.399,0.993,-1.351,8.928,0.766,-1.347,8.828,0.121,0.803,-0.478,47.411
'0:01.418',40.838,1397.269,-11.386,4.393,9.897,1.018,-1.376,8.928,0.833,-1.377,8.838,0.119,0.803,-0.473,47.415
'0:01.422',37.343,1397.687,-10.629,4.309,9.44,1.018,-1.387,8.952,0.853,-1.379,8.77,0.119,0.803,-0.48,47.419
'0:01.426',43.532,1397.698,-9.869,4.619,8.96,1.079,-1.4,8.989,0.91,-1.407,8.859,0.13,0.805,-0.463,47.423
'0:01.430',40.571,1397.391,-8.973,5.38,8.18,1.127,-1.448,9.061,0.909,-1.454,8.917,0.13,0.805,-0.463,47.427
'0:01.434',94.479,1396.973,-8.228,5.511,7.397,1.176,-1.471,9.158,0.967,-1.474,8.957,0.119,0.799,-0.478,47.431
'0:01.438',162.418,1396.635,-7.295,5.803,6.809,1.163,-1.506,9.194,0.976,-1.511,9.035,0.121,0.798,-0.482,47.435
'0:01.441',192.346,1396.412,-6.39,5.573,6.168,1.065,-1.479,9.217,0.937,-1.501,9.044,0.123,0.808,-0.48,47.439
'0:01.445',127.928,1396.175,-5.799,4.91,5.966,0.931,-1.403,9.265,0.811,-1.478,9.12,0.125,0.803,-0.478,47.443
'0:01.449',53.775,1395.736,-5.153,4.666,5.883,0.821,-1.364,9.301,0.753,-1.467,9.158,0.126,0.801,-0.48,47.446
'0:01.453',-6.348,1394.941,-4.063,4.52,6.052,0.724,-1.325,9.348,0.609,-1.386,9.196,0.13,0.805,-0.484,47.45
'0:01.457',-27.901,1393.763,-2.813,3.688,5.793,0.663,-1.287,9.348,0.513,-1.337,9.126,0.13,0.805,-0.484,47.454
'0:01.461',-7.149,1392.254,-2.259,2.941,5.733,0.651,-1.239,9.337,0.494,-1.258,9.156,0.123,0.803,-0.482,47.458
'0:01.465',36.517,1390.512,-1.564,1.842,5.846,0.676,-1.217,9.289,0.455,-1.257,9.194,0.126,0.803,-0.48,47.462
'0:01.469',106.882,1388.724,-1.179,1.001,5.82,0.714,-1.159,9.23,0.503,-1.239,9.166,0.132,0.799,-0.48,47.466
'0:01.473',101.228,1387.215,-0.877,-0.31,5.865,0.751,-1.124,9.183,0.572,-1.213,9.079,0.126,0.801,-0.478,47.47
'0:01.477',89.651,1386.327,-0.686,-0.963,6.041,0.8,-1.09,9.172,0.591,-1.155,9.08,0.13,0.796,-0.484,47.474
'0:01.480',81.809,1386.281,-0.434,-1.024,6.176,0.862,-1.078,9.209,0.649,-1.127,9.062,0.13,0.796,-0.484,47.478
'0:01.484',72.126,1387.163,-0.372,-0.991,6.142,0.996,-1.116,9.283,0.793,-1.168,9.083,0.128,0.799,-0.482,47.482
'0:01.488',88.291,1388.954,-0.372,-0.235,5.902,1.117,-1.165,9.369,0.84,-1.157,9.162,0.128,0.799,-0.469,47.486
'0:01.492',97.2,1391.519,-0.354,0.634,5.812,1.215,-1.19,9.466,1.012,-1.236,9.253,0.137,0.801,-0.48,47.489
'0:01.496',88.024,1394.565,-0.699,1.565,5.666,1.239,-1.225,9.515,1.022,-1.206,9.341,0.132,0.806,-0.486,47.493
'0:01.500',83.97,1397.638,-0.853,2.439,5.703,1.215,-1.201,9.503,1.07,-1.255,9.312,0.133,0.799,-0.484,47.497
'0:01.504',74.554,1400.214,-1.179,3.439,6.093,1.093,-1.138,9.49,0.964,-1.166,9.33,0.13,0.799,-0.48,47.501
'0:01.508',56.469,1401.855,-1.616,3.806,6.573,0.935,-1.039,9.489,0.858,-1.135,9.348,0.13,0.799,-0.48,47.505
'0:01.512',63.751,1402.406,-1.755,4.135,7.431,0.825,-1.024,9.512,0.665,-1.092,9.384,0.128,0.801,-0.48,47.509
'0:01.516',54.335,1402.001,-1.675,4.501,7.978,0.739,-1.034,9.523,0.636,-1.062,9.413,0.13,0.792,-0.482,47.513
'0:01.520',36.25,1400.97,-1.551,4.177,7.918,0.678,-1.068,9.51,0.55,-1.119,9.372,0.133,0.796,-0.482,47.517
'0:01.523',28.168,1399.681,-1.521,4.553,8.203,0.616,-1.079,9.484,0.483,-1.099,9.362,0.13,0.798,-0.484,47.521
'0:01.527',39.504,1398.517,-1.81,3.886,8.525,0.531,-1.078,9.447,0.387,-1.128,9.292,0.132,0.801,-0.48,47.525
'0:01.531',59.456,1397.809,-1.859,3.284,8.859,0.493,-1.15,9.421,0.339,-1.118,9.262,0.132,0.801,-0.48,47.529
'0:01.535',66.711,1397.68,-1.788,2.171,9.548,0.541,-1.212,9.372,0.291,-1.175,9.29,0.135,0.801,-0.484,47.532
'0:01.539',83.97,1398.011,-1.915,1.424,9.024,0.651,-1.311,9.36,0.436,-1.285,9.223,0.132,0.798,-0.486,47.536
'0:01.543',62.417,1398.551,-1.576,1.325,8.698,0.797,-1.398,9.384,0.502,-1.363,9.262,0.137,0.803,-0.48,47.54
'0:01.547',58.363,1399.036,-1.989,1.485,8.424,0.869,-1.483,9.432,0.646,-1.481,9.322,0.133,0.798,-0.488,47.544
'0:01.551',29.261,1399.276,-1.582,1.64,8.54,0.832,-1.481,9.48,0.647,-1.501,9.273,0.132,0.798,-0.482,47.548
'0:01.555',19.285,1399.214,-1.745,1.936,8.754,0.784,-1.457,9.443,0.675,-1.521,9.274,0.133,0.805,-0.484,47.552
'0:01.559',-11.47,1398.882,-1.945,1.363,9.057,0.76,-1.36,9.433,0.627,-1.432,9.322,0.133,0.805,-0.484,47.556
'0:01.563',13.87,1398.321,-1.61,1.217,8.791,0.773,-1.301,9.398,0.608,-1.374,9.303,0.137,0.801,-0.484,47.56
'0:01.566',84.236,1397.572,-1.539,1.212,8.574,0.81,-1.254,9.375,0.618,-1.327,9.216,0.14,0.798,-0.488,47.564
'0:01.570',177.515,1396.666,-1.533,0.921,7.903,0.86,-1.208,9.364,0.59,-1.259,9.196,0.133,0.803,-0.48,47.568
'0:01.574',357.617,1395.593,-1.582,0.888,7.933,0.909,-1.196,9.389,0.667,-1.202,9.208,0.139,0.799,-0.482,47.571
'0:01.578',473.809,1394.418,-1.342,0.954,7.468,0.921,-1.184,9.414,0.724,-1.24,9.296,0.14,0.801,-0.486,47.575
'0:01.582',541.214,1393.296,-1.197,1.179,7.307,0.933,-1.196,9.414,0.733,-1.241,9.267,0.14,0.799,-0.486,47.579
'0:01.586',574.636,1392.3,-1.339,1.179,6.835,0.934,-1.185,9.39,0.705,-1.192,9.277,0.142,0.799,-0.486,47.583
'0:01.590',496.989,1391.432,-1.404,0.977,6.592,0.861,-1.112,9.342,0.734,-1.204,9.189,0.14,0.796,-0.484,47.587
'0:01.594',374.875,1390.77,-1.579,0.818,6.445,0.825,-1.051,9.318,0.638,-1.075,9.228,0.14,0.798,-0.484,47.591
'0:01.598',311.258,1390.442,-1.404,0.813,6.303,0.8,-1.074,9.354,0.647,-1.075,9.228,0.142,0.801,-0.488,47.595
'0:01.602',284.824,1390.481,-1.314,0.625,6.059,0.86,-1.171,9.389,0.628,-1.124,9.218,0.139,0.794,-0.488,47.599
'0:01.605',243.586,1390.798,-1.416,0.747,5.415,0.92,-1.28,9.437,0.705,-1.251,9.218,0.142,0.799,-0.48,47.603
'0:01.609',215.819,1391.293,-1.431,1.071,5.085,0.98,-1.389,9.46,0.753,-1.348,9.267,0.142,0.799,-0.48,47.607
'0:01.613',147.88,1391.906,-1.518,1.391,4.976,0.906,-1.423,9.482,0.742,-1.404,9.364,0.144,0.799,-0.49,47.611
'0:01.617',119.846,1392.572,-1.422,1.889,5.243,0.833,-1.457,9.493,0.695,-1.414,9.314,0.144,0.798,-0.49,47.614
'0:01.621',92.345,1393.206,-1.622,2.157,5.535,0.723,-1.418,9.492,0.579,-1.45,9.351,0.147,0.794,-0.484,47.618
'0:01.625',64.017,1393.728,-1.496,2.213,6.026,0.6,-1.404,9.49,0.464,-1.41,9.32,0.153,0.799,-0.473,47.622
'0:01.629',81.809,1394.105,-1.25,2.063,6.007,0.552,-1.367,9.442,0.425,-1.41,9.28,0.139,0.799,-0.488,47.626
'0:01.633',77.781,1394.283,-1.305,1.485,6.153,0.528,-1.355,9.418,0.377,-1.41,9.26,0.142,0.798,-0.484,47.63
'0:01.637',84.53,1394.213,-1.357,1.17,6.329,0.491,-1.343,9.393,0.349,-1.38,9.25,0.142,0.798,-0.484,47.634
'0:01.641',46.226,1393.878,-1.247,0.761,6.547,0.467,-1.33,9.393,0.272,-1.341,9.19,0.142,0.796,-0.49,47.638
'0:01.645',35.983,1393.3,-0.794,0.207,6.918,0.528,-1.331,9.406,0.349,-1.361,9.26,0.144,0.801,-0.488,47.642
'0:01.648',33.556,1392.523,-0.4,-0.113,6.959,0.601,-1.333,9.395,0.416,-1.391,9.27,0.144,0.794,-0.49,47.646
'0:01.652',57.029,1391.603,-0.6,-0.413,6.708,0.675,-1.288,9.36,0.445,-1.353,9.261,0.139,0.799,-0.49,47.65
'0:01.656',110.137,1390.571,-0.489,-0.841,6.648,0.688,-1.217,9.289,0.513,-1.287,9.214,0.144,0.794,-0.484,47.654
'0:01.660',122.54,1389.477,-0.394,-1.522,6.843,0.665,-1.122,9.218,0.494,-1.172,9.117,0.144,0.794,-0.484,47.657
'0:01.664',86.397,1388.435,-0.914,-1.931,7.165,0.666,-1.061,9.231,0.475,-1.162,9.088,0.14,0.799,-0.492,47.661
'0:01.668',72.393,1387.606,-0.711,-2.039,7.101,0.714,-1.086,9.256,0.485,-1.103,9.127,0.146,0.796,-0.488,47.665
'0:01.672',60.523,1387.066,-0.797,-2.392,6.985,0.8,-1.136,9.268,0.581,-1.125,9.109,0.147,0.796,-0.484,47.669
'0:01.676',60.523,1386.759,-0.68,-2.72,6.232,0.909,-1.186,9.293,0.667,-1.145,9.15,0.146,0.794,-0.486,47.673
'0:01.680',25.207,1386.567,-0.766,-2.349,5.846,0.982,-1.211,9.33,0.734,-1.164,9.248,0.142,0.799,-0.482,47.677
'0:01.684',7.682,1386.39,-0.776,-2.448,5.43,1.031,-1.223,9.379,0.811,-1.194,9.259,0.144,0.799,-0.486,47.681
'0:01.688',23.846,1386.194,-1.031,-1.649,5.61,1.067,-1.259,9.463,0.848,-1.203,9.328,0.144,0.799,-0.486,47.685
'0:01.691',55.402,1386.034,-1.2,-1.273,5.344,1.14,-1.295,9.512,0.935,-1.292,9.319,0.144,0.799,-0.484,47.689
'0:01.695',55.668,1386.055,-1.527,-0.592,5.156,1.177,-1.344,9.548,0.954,-1.34,9.358,0.149,0.798,-0.482,47.693
'0:01.699',57.562,1386.421,-1.481,0.127,4.609,1.127,-1.402,9.582,0.973,-1.388,9.417,0.142,0.796,-0.488,47.696
'0:01.703',89.091,1387.181,-1.462,0.752,4.523,1.054,-1.388,9.57,0.935,-1.407,9.367,0.147,0.801,-0.482,47.7
'0:01.707',87.224,1388.254,-1.644,0.897,4.201,0.919,-1.386,9.544,0.819,-1.414,9.443,0.147,0.798,-0.486,47.704
'0:01.711',102.855,1389.487,-1.591,1.067,4.381,0.784,-1.394,9.578,0.694,-1.423,9.353,0.147,0.798,-0.486,47.708
'0:01.715',104.188,1390.732,-0.988,0.836,4.238,0.662,-1.367,9.589,0.54,-1.4,9.39,0.144,0.801,-0.486,47.712
'0:01.719',106.082,1391.812,-0.671,0.32,4.298,0.552,-1.376,9.599,0.444,-1.408,9.388,0.147,0.801,-0.486,47.716
'0:01.723',121.18,1392.512,-0.628,-0.428,4.354,0.515,-1.376,9.574,0.415,-1.436,9.426,0.149,0.801,-0.488,47.72
'0:01.727',134.116,1392.669,-0.089,-0.841,4.306,0.515,-1.365,9.514,0.328,-1.407,9.366,0.146,0.796,-0.488,47.724
'0:01.730',164.311,1392.251,-0.095,-1.358,4.422,0.552,-1.367,9.478,0.348,-1.436,9.367,0.151,0.792,-0.486,47.728
'0:01.734',166.472,1391.366,0.234,-1.8,4.531,0.565,-1.333,9.37,0.358,-1.4,9.24,0.146,0.799,-0.484,47.732
'0:01.738',170.526,1390.191,0.018,-2.326,4.849,0.529,-1.238,9.275,0.369,-1.296,9.104,0.146,0.799,-0.484,47.736
'0:01.742',202.055,1388.892,-0.086,-3.223,5.093,0.493,-1.143,9.179,0.322,-1.209,9.055,0.151,0.792,-0.486,47.739
'0:01.746',213.125,1387.595,-0.179,-3.261,5.385,0.445,-1.07,9.131,0.293,-1.073,9.037,0.151,0.799,-0.484,47.743
'0:01.750',211.231,1386.403,-0.299,-3.519,5.377,0.506,-1.072,9.132,0.303,-1.082,9.046,0.144,0.801,-0.486,47.747
'0:01.754',199.894,1385.368,-0.24,-3.529,5.085,0.641,-1.122,9.193,0.418,-1.094,9.068,0.144,0.799,-0.494,47.751
'0:01.758',204.216,1384.49,0.052,-3.317,4.493,0.799,-1.208,9.267,0.524,-1.144,9.069,0.156,0.803,-0.478,47.755
'0:01.762',248.147,1383.79,-0.025,-3.148,3.953,0.908,-1.258,9.292,0.668,-1.292,9.061,0.156,0.799,-0.484,47.759
'0:01.766',287.251,1383.344,0.025,-2.833,3.579,0.981,-1.296,9.28,0.744,-1.273,9.111,0.147,0.799,-0.484,47.763
'0:01.770',333.344,1383.208,-0.179,-2.603,3.657,0.958,-1.236,9.256,0.783,-1.303,9.111,0.147,0.798,-0.488,47.767
'0:01.773',310.698,1383.34,-0.376,-1.941,3.912,0.934,-1.2,9.22,0.764,-1.284,9.043,0.149,0.796,-0.486,47.771
'0:01.777',289.679,1383.647,-0.323,-1.997,4.066,0.873,-1.139,9.221,0.725,-1.216,9.053,0.144,0.801,-0.484,47.775
'0:01.781',301.815,1384.027,-0.474,-1.56,3.755,0.861,-1.102,9.209,0.745,-1.148,9.053,0.151,0.798,-0.486,47.779
'0:01.785',302.882,1384.407,-0.357,-1.344,3.256,0.861,-1.15,9.244,0.706,-1.177,9.053,0.149,0.799,-0.488,47.782
'0:01.789',296.961,1384.755,-0.456,-0.977,2.822,0.909,-1.198,9.293,0.744,-1.195,9.121,0.149,0.799,-0.488,47.786
'0:01.793',291.839,1385.027,-0.474,-0.409,2.293,0.909,-1.245,9.34,0.744,-1.214,9.131,0.149,0.792,-0.488,47.79
'0:01.797',319.34,1385.177,-0.326,0.23,2.114,0.908,-1.28,9.4,0.724,-1.252,9.189,0.151,0.801,-0.488,47.794
'0:01.801',330.917,1385.166,-0.437,0.836,1.907,0.883,-1.314,9.472,0.685,-1.308,9.285,0.146,0.796,-0.486,47.798
'0:01.805',333.344,1384.985,-0.299,1.358,1.881,0.834,-1.312,9.507,0.714,-1.327,9.315,0.149,0.801,-0.488,47.802
'0:01.809',359.511,1384.623,-0.151,1.72,1.72,0.797,-1.347,9.555,0.646,-1.364,9.372,0.151,0.799,-0.492,47.806
'0:01.813',399.415,1384.1,0.209,1.339,1.81,0.76,-1.346,9.554,0.627,-1.382,9.381,0.147,0.798,-0.488,47.81
'0:01.816',410.458,1383.532,0.255,1.179,1.551,0.76,-1.358,9.542,0.598,-1.421,9.381,0.147,0.798,-0.488,47.814
'0:01.820',411.525,1383.11,0.409,0.865,1.769,0.723,-1.37,9.517,0.617,-1.422,9.342,0.147,0.796,-0.49,47.818
'0:01.824',432.011,1382.971,0.382,0.489,1.465,0.723,-1.37,9.481,0.598,-1.393,9.332,0.153,0.803,-0.486,47.821
'0:01.828',407.764,1383.069,0.748,-0.146,1.716,0.711,-1.359,9.42,0.522,-1.393,9.253,0.149,0.798,-0.486,47.825
'0:01.832',321.207,1383.288,0.776,-0.709,1.769,0.699,-1.348,9.384,0.522,-1.394,9.204,0.144,0.803,-0.482,47.829
'0:01.836',272.421,1383.574,0.788,-0.799,1.877,0.748,-1.326,9.349,0.484,-1.354,9.204,0.151,0.799,-0.486,47.833
'0:01.840',300.188,1383.891,0.693,-1.212,1.93,0.736,-1.338,9.312,0.542,-1.347,9.146,0.151,0.799,-0.486,47.837
'0:01.844',357.084,1384.159,0.36,-1.269,2.17,0.749,-1.29,9.301,0.561,-1.356,9.195,0.149,0.801,-0.488,47.841
'0:01.848',362.472,1384.358,0.708,-1.457,2.518,0.749,-1.279,9.289,0.571,-1.318,9.166,0.147,0.792,-0.494,47.845
'0:01.852',333.344,1384.57,0.628,-1.926,2.589,0.737,-1.242,9.277,0.523,-1.298,9.136,0.149,0.796,-0.49,47.849
'0:01.855',263.245,1384.877,0.409,-2.829,2.679,0.75,-1.17,9.291,0.523,-1.24,9.147,0.147,0.798,-0.492,47.853
'0:01.859',198.827,1385.247,0.739,-3.19,2.773,0.812,-1.136,9.305,0.6,-1.192,9.138,0.151,0.796,-0.492,47.857
'0:01.863',170.26,1385.567,0.517,-2.824,2.908,0.922,-1.136,9.403,0.686,-1.154,9.199,0.146,0.792,-0.486,47.861
'0:01.867',180.236,1385.79,0.456,-2.439,2.938,1.032,-1.173,9.5,0.762,-1.193,9.278,0.146,0.792,-0.486,47.864
'0:01.871',253.562,1385.94,0.591,-2.321,2.687,1.105,-1.198,9.537,0.829,-1.202,9.347,0.146,0.796,-0.488,47.868
'0:01.875',311.791,1386.041,0.622,-2.208,2.945,1.166,-1.247,9.562,0.916,-1.242,9.368,0.146,0.799,-0.492,47.872
'0:01.879',275.942,1386.142,0.634,-1.64,2.998,1.141,-1.247,9.537,0.954,-1.427,9.387,0.149,0.801,-0.486,47.876
'0:01.883',199.361,1386.344,0.446,-1.471,3.137,1.092,-1.27,9.512,0.963,-1.311,9.368,0.149,0.799,-0.484,47.88
'0:01.887',177.808,1386.696,0.397,-0.963,3.193,1.031,-1.282,9.474,0.887,-1.29,9.348,0.149,0.798,-0.488,47.884
'0:01.891',233.877,1387.174,0.594,-0.78,3.204,0.933,-1.268,9.437,0.829,-1.29,9.298,0.149,0.798,-0.488,47.888
'0:01.895',279.436,1387.731,1.025,-0.803,2.859,0.847,-1.279,9.387,0.734,-1.338,9.237,0.158,0.794,-0.482,47.892
'0:01.898',251.135,1388.264,1.241,-1.391,2.522,0.761,-1.302,9.349,0.666,-1.328,9.236,0.147,0.799,-0.482,47.896
'0:01.902',175.648,1388.627,1.662,-2.016,2.664,0.712,-1.302,9.276,0.581,-1.348,9.127,0.147,0.799,-0.488,47.9
'0:01.906',204.482,1388.735,1.73,-2.424,2.252,0.675,-1.326,9.239,0.523,-1.376,9.097,0.147,0.798,-0.486,47.904
'0:01.910',245.747,1388.55,2.016,-2.711,2.282,0.638,-1.325,9.262,0.494,-1.376,9.086,0.153,0.799,-0.484,47.907
'0:01.914',250.308,1387.989,2.653,-2.641,2.087,0.638,-1.325,9.262,0.475,-1.327,9.096,0.146,0.801,-0.494,47.911
'0:01.918',183.997,1386.996,2.69,-2.622,1.716,0.675,-1.301,9.275,0.456,-1.347,9.076,0.146,0.801,-0.494,47.915
'0:01.922',183.73,1385.689,2.89,-2.88,1.686,0.712,-1.303,9.24,0.514,-1.32,8.999,0.151,0.799,-0.492,47.919
'0:01.926',208.537,1384.368,2.958,-3.35,1.248,0.712,-1.256,9.192,0.581,-1.33,9.049,0.146,0.801,-0.484,47.923
'0:01.930',270.527,1383.389,3.183,-3.195,1.319,0.701,-1.183,9.181,0.504,-1.221,9.068,0.147,0.798,-0.484,47.927
'0:01.934',271.354,1382.964,3.358,-2.763,1.491,0.701,-1.171,9.181,0.486,-1.165,8.941,0.146,0.798,-0.484,47.931
'0:01.938',214.458,1383.089,3.669,-2.622,1.072,0.763,-1.16,9.207,0.485,-1.192,9.039,0.146,0.798,-0.486,47.935
'0:01.941',192.906,1383.542,3.78,-2.645,0.761,0.811,-1.197,9.231,0.581,-1.213,9.06,0.146,0.803,-0.486,47.939
'0:01.945',215.552,1384.03,4.06,-2.688,0.326,0.86,-1.234,9.231,0.62,-1.223,9.07,0.147,0.803,-0.486,47.943
'0:01.949',265.406,1384.361,4.039,-2.622,-0.09,0.884,-1.223,9.219,0.668,-1.215,9.022,0.146,0.801,-0.484,47.946
'0:01.953',321.768,1384.532,4.217,-2.763,-0.289,0.873,-1.188,9.159,0.687,-1.215,9.032,0.147,0.799,-0.482,47.95
'0:01.957',363.005,1384.598,4.3,-2.965,-0.442,0.811,-1.174,9.159,0.696,-1.185,9.111,0.151,0.801,-0.476,47.954
'0:01.961',291.039,1384.605,4.214,-3.139,-0.547,0.799,-1.162,9.183,0.649,-1.176,9.051,0.147,0.806,-0.48,47.958
'0:01.965',201.788,1384.668,4.519,-3.204,-0.824,0.848,-1.21,9.231,0.649,-1.205,9.032,0.144,0.798,-0.478,47.962
'0:01.969',169.433,1385.03,4.611,-3.19,-1.383,0.933,-1.272,9.243,0.725,-1.293,9.062,0.144,0.798,-0.478,47.966
'0:01.973',158.123,1385.905,4.842,-2.932,-2.005,0.969,-1.295,9.316,0.733,-1.29,9.247,0.144,0.803,-0.484,47.97
'0:01.977',185.891,1387.299,5.19,-2.439,-1.971,0.981,-1.354,9.375,0.811,-1.332,9.16,0.146,0.805,-0.488,47.974
'0:01.980',244.386,1388.951,5.27,-1.912,-2.286,0.98,-1.389,9.46,0.791,-1.397,9.296,0.144,0.801,-0.48,47.978
'0:01.984',277.275,1390.481,5.568,-1.292,-2.484,0.98,-1.411,9.532,0.8,-1.415,9.345,0.147,0.808,-0.48,47.982
'0:01.988',284.824,1391.617,5.578,-1.071,-2.35,0.967,-1.447,9.543,0.809,-1.453,9.423,0.142,0.803,-0.478,47.986
'0:01.992',289.946,1392.272,5.772,-1.001,-2.571,0.919,-1.434,9.543,0.751,-1.452,9.422,0.147,0.801,-0.478,47.989
'0:01.996',280.236,1392.481,6.113,-1.532,-2.368,0.833,-1.408,9.554,0.732,-1.403,9.412,0.147,0.801,-0.478,47.993
'0:02.000',305.31,1392.342,5.966,-1.724,-2.192,0.76,-1.334,9.542,0.588,-1.372,9.391,0.147,0.805,-0.478,47.997
'0:02.004',294,1391.899,6.083,-2.034,-1.761,0.724,-1.262,9.483,0.559,-1.343,9.361,0.142,0.801,-0.478,48.001
'0:02.008',243.026,1391.122,5.987,-3.026,-1.713,0.737,-1.261,9.555,0.55,-1.294,9.361,0.142,0.805,-0.476,48.005
'0:02.012',199.361,1390.007,6.44,-3.468,-1.578,0.859,-1.264,9.533,0.608,-1.276,9.372,0.139,0.801,-0.476,48.009
'0:02.016',244.12,1388.752,6.827,-2.979,-1.728,0.969,-1.255,9.534,0.723,-1.297,9.354,0.142,0.805,-0.473,48.013
'0:02.020',307.204,1387.693,6.415,-3.27,-2.301,1.043,-1.233,9.536,0.8,-1.269,9.356,0.142,0.805,-0.473,48.017
'0:02.023',393.734,1387.031,6.07,-2.894,-2.41,1.044,-1.196,9.549,0.838,-1.24,9.386,0.14,0.808,-0.473,48.021
'0:02.027',432.011,1386.71,6.323,-2.73,-1.986,1.019,-1.184,9.549,0.819,-1.211,9.367,0.144,0.805,-0.476,48.025
'0:02.031',427.183,1386.567,6.316,-2.716,-1.6,0.995,-1.184,9.512,0.81,-1.221,9.357,0.14,0.808,-0.471,48.029
'0:02.035',347.108,1386.477,6.199,-3.12,-1.701,0.994,-1.209,9.451,0.791,-1.221,9.317,0.142,0.808,-0.471,48.032
'0:02.039',253.829,1386.33,6.098,-3.58,-1.802,0.958,-1.233,9.426,0.801,-1.261,9.288,0.137,0.796,-0.471,48.036
'0:02.043',241.959,1386.104,6.298,-4.125,-2.102,0.934,-1.161,9.354,0.763,-1.203,9.219,0.137,0.805,-0.473,48.04
'0:02.047',268.393,1385.902,5.876,-4.722,-2.196,0.874,-1.077,9.306,0.657,-1.105,9.179,0.137,0.805,-0.473,48.044
'0:02.051',270.26,1385.842,5.932,-5.225,-2.084,0.887,-1.017,9.296,0.687,-1.068,9.141,0.142,0.801,-0.473,48.048
'0:02.055',271.887,1385.93,5.892,-5.183,-2.222,0.948,-0.983,9.297,0.725,-1.029,9.152,0.14,0.801,-0.467,48.052
'0:02.059',250.868,1386.083,5.679,-5.403,-2.507,1.009,-0.996,9.298,0.763,-1.029,9.182,0.137,0.806,-0.473,48.056
'0:02.063',261.111,1386.173,5.63,-5.281,-3.028,1.07,-1.009,9.31,0.84,-1.049,9.222,0.14,0.801,-0.467,48.06
'0:02.066',256.256,1386.083,5.341,-4.764,-3.047,1.107,-0.997,9.347,0.869,-1.07,9.203,0.139,0.808,-0.467,48.064
'0:02.070',222.274,1385.78,5.113,-4.327,-3.358,1.107,-0.997,9.36,0.85,-1.03,9.212,0.139,0.808,-0.467,48.068
'0:02.074',235.477,1385.344,4.451,-3.209,-3.268,1.083,-0.984,9.396,0.897,-0.982,9.262,0.139,0.803,-0.471,48.071
'0:02.078',274.848,1384.902,4.602,-2.965,-3.26,1.07,-0.995,9.42,0.868,-1,9.291,0.137,0.806,-0.467,48.075
'0:02.082',303.416,1384.501,4.242,-2.434,-3.339,1.058,-1.042,9.455,0.859,-1.049,9.242,0.139,0.806,-0.469,48.079
'0:02.086',305.576,1384.159,4.066,-2.025,-3.526,0.984,-1.052,9.49,0.858,-1.047,9.349,0.132,0.799,-0.465,48.083
'0:02.090',305.843,1383.818,4.22,-1.926,-3.837,0.91,-1.121,9.524,0.781,-1.143,9.327,0.137,0.806,-0.469,48.087
'0:02.094',344.68,1383.375,4.377,-2.058,-3.639,0.848,-1.167,9.559,0.694,-1.199,9.384,0.135,0.805,-0.476,48.091
'0:02.098',378.903,1382.762,4.313,-2.387,-3.845,0.798,-1.226,9.581,0.655,-1.227,9.403,0.135,0.805,-0.476,48.095
'0:02.102',365.166,1382.03,4.399,-2.664,-4.013,0.786,-1.226,9.569,0.559,-1.265,9.371,0.137,0.806,-0.473,48.099
'0:02.105',344.947,1381.302,4.531,-2.753,-3.938,0.774,-1.226,9.544,0.598,-1.256,9.372,0.135,0.805,-0.467,48.103
'0:02.109',313.125,1380.667,4.854,-2.73,-3.665,0.712,-1.225,9.531,0.559,-1.284,9.391,0.135,0.808,-0.465,48.107
'0:02.113',310.965,1380.173,5.054,-3.092,-3.451,0.712,-1.237,9.507,0.55,-1.295,9.332,0.132,0.806,-0.463,48.111
'0:02.117',338.199,1379.88,5.245,-3.016,-3.579,0.749,-1.275,9.458,0.569,-1.295,9.323,0.133,0.803,-0.463,48.114
'0:02.121',372.981,1379.894,5.387,-3.392,-3.942,0.81,-1.266,9.399,0.608,-1.287,9.284,0.133,0.805,-0.467,48.118
'0:02.125',390.239,1380.249,5.479,-3.312,-4.238,0.847,-1.279,9.363,0.618,-1.317,9.226,0.13,0.805,-0.467,48.122
'0:02.129',409.925,1380.751,5.568,-3.026,-4.474,0.872,-1.268,9.363,0.686,-1.318,9.236,0.13,0.808,-0.467,48.126
'0:02.133',375.142,1380.974,5.818,-2.782,-4.557,0.872,-1.268,9.363,0.667,-1.31,9.168,0.126,0.808,-0.463,48.13
'0:02.137',339.292,1380.444,5.907,-2.937,-4.542,0.908,-1.257,9.352,0.695,-1.3,9.208,0.128,0.805,-0.465,48.134
'0:02.141',312.325,1378.936,6.353,-2.97,-5.179,0.957,-1.257,9.389,0.743,-1.261,9.258,0.13,0.805,-0.465,48.138
'0:02.145',312.325,1376.608,6.618,-2.8,-5.831,1.043,-1.26,9.378,0.82,-1.243,9.239,0.132,0.81,-0.463,48.142
'0:02.148',357.084,1373.914,6.812,-2.782,-6.296,1.08,-1.211,9.44,0.887,-1.205,9.27,0.132,0.81,-0.463,48.146
'0:02.152',318.513,1371.36,7.046,-2.58,-6.719,1.117,-1.164,9.429,0.907,-1.185,9.28,0.132,0.808,-0.457,48.15
'0:02.156',272.421,1369.283,7.36,-2.42,-7.142,1.142,-1.129,9.43,0.907,-1.146,9.291,0.133,0.812,-0.461,48.154
'0:02.160',252.735,1367.812,7.449,-2.063,-7.379,1.155,-1.117,9.419,0.954,-1.118,9.311,0.13,0.808,-0.461,48.157
'0:02.164',236.038,1366.882,7.859,-2.143,-7.645,1.18,-1.094,9.419,1.002,-1.147,9.321,0.128,0.808,-0.457,48.161
'0:02.168',243.026,1366.303,8.17,-1.945,-8.315,1.167,-1.093,9.419,0.974,-1.099,9.292,0.133,0.81,-0.467,48.165
'0:02.172',246.814,1365.808,8.687,-1.457,-8.851,1.155,-1.081,9.443,0.955,-1.098,9.301,0.128,0.812,-0.457,48.169
'0:02.176',294,1365.171,8.834,-0.55,-9.312,1.118,-1.103,9.467,0.983,-1.138,9.292,0.128,0.812,-0.457,48.173
'0:02.180',340.893,1364.324,9.389,-0.07,-9.683,1.069,-1.114,9.466,0.935,-1.174,9.369,0.133,0.813,-0.455,48.177
'0:02.184',348.175,1363.404,9.884,0.052,-9.829,1.032,-1.174,9.44,0.877,-1.183,9.387,0.123,0.81,-0.459,48.181
'0:02.188',298.588,1362.648,10.247,0.061,-10.59,0.982,-1.185,9.415,0.811,-1.224,9.22,0.132,0.812,-0.457,48.185
'0:02.191',316.379,1362.289,10.724,0.169,-10.661,0.897,-1.162,9.305,0.763,-1.243,9.18,0.132,0.812,-0.455,48.189
'0:02.195',429.317,1362.477,11.048,-0.85,-11.036,0.739,-1.077,9.147,0.62,-1.166,9.022,0.126,0.812,-0.457,48.193
'0:02.199',592.695,1363.306,11.171,-2.533,-11.032,0.594,-0.943,9.051,0.553,-1.068,8.982,0.126,0.812,-0.457,48.196
'0:02.203',700.804,1364.812,11.309,-3.834,-11.047,0.46,-0.833,8.966,0.362,-0.902,8.883,0.125,0.813,-0.453,48.2
'0:02.207',808.913,1366.937,11.288,-4.774,-11.216,0.401,-0.7,8.943,0.323,-0.844,8.863,0.13,0.812,-0.453,48.204
'0:02.211',833.987,1369.558,11.306,-6.296,-11.549,0.389,-0.604,8.921,0.286,-0.679,8.795,0.123,0.813,-0.448,48.208
'0:02.215',744.202,1372.422,10.952,-7.231,-11.546,0.415,-0.461,8.875,0.247,-0.523,8.796,0.123,0.812,-0.45,48.212
'0:02.219',642.308,1375.168,10.423,-8.396,-12.198,0.453,-0.365,8.938,0.228,-0.445,8.826,0.123,0.808,-0.448,48.216
'0:02.223',587.306,1377.364,9.641,-8.434,-11.845,0.491,-0.291,9.073,0.285,-0.318,8.886,0.118,0.813,-0.45,48.22
'0:02.227',521.262,1378.65,9.068,-7.894,-11.703,0.576,-0.338,9.243,0.323,-0.326,8.994,0.118,0.813,-0.45,48.224
'0:02.230',518.834,1378.81,9.081,-7.175,-11.636,0.709,-0.41,9.425,0.446,-0.374,9.181,0.121,0.815,-0.446,48.228
'0:02.234',458.711,1377.876,8.52,-6.259,-11.733,0.843,-0.506,9.558,0.541,-0.478,9.377,0.118,0.813,-0.45,48.232
'0:02.238',365.699,1376.068,8.222,-5.234,-11.606,0.89,-0.626,9.654,0.647,-0.567,9.398,0.119,0.812,-0.444,48.236
'0:02.242',319.874,1373.677,7.942,-4.168,-11.815,0.926,-0.698,9.701,0.732,-0.693,9.486,0.114,0.817,-0.442,48.239
'0:02.246',298.855,1370.99,7.726,-3.74,-11.74,0.901,-0.793,9.711,0.732,-0.721,9.525,0.114,0.815,-0.444,48.243
'0:02.250',285.624,1368.283,7.486,-3.482,-11.83,0.888,-0.853,9.698,0.683,-0.826,9.582,0.114,0.815,-0.444,48.247
'0:02.254',285.891,1365.808,7.511,-3.576,-12.569,0.851,-0.925,9.684,0.655,-0.865,9.562,0.116,0.813,-0.444,48.251
'0:02.258',308.004,1363.808,7.634,-3.961,-13.164,0.85,-0.974,9.635,0.731,-0.983,9.572,0.111,0.817,-0.44,48.255
'0:02.262',316.913,1362.449,7.862,-3.801,-14.015,0.886,-1.035,9.634,0.713,-1.033,9.474,0.114,0.815,-0.446,48.259
'0:02.266',301.815,1361.811,7.976,-3.482,-14.712,0.898,-1.06,9.61,0.712,-1.051,9.522,0.111,0.819,-0.442,48.263
'0:02.270',288.612,1361.923,7.794,-3.322,-15.034,0.91,-1.096,9.609,0.703,-1.081,9.483,0.111,0.817,-0.442,48.267
'0:02.273',298.588,1362.728,7.914,-3.063,-15.578,0.922,-1.096,9.597,0.751,-1.101,9.464,0.112,0.822,-0.44,48.271
'0:02.277',347.641,1364.069,7.76,-2.518,-15.859,0.935,-1.073,9.561,0.751,-1.102,9.454,0.112,0.822,-0.44,48.275
'0:02.281',359.511,1365.683,7.871,-2.237,-16.219,0.922,-1.074,9.513,0.742,-1.132,9.405,0.109,0.817,-0.442,48.279
'0:02.285',336.865,1367.23,7.418,-1.536,-16.346,0.898,-1.037,9.525,0.761,-1.053,9.445,0.105,0.819,-0.438,48.282
'0:02.289',326.355,1368.405,7.535,-1.25,-16.518,0.887,-0.977,9.514,0.771,-1.045,9.396,0.114,0.824,-0.427,48.286
'0:02.293',313.952,1369.035,7.305,-0.775,-16.477,0.863,-0.941,9.49,0.732,-0.966,9.416,0.107,0.812,-0.438,48.29
'0:02.297',356.817,1369.182,6.963,-0.766,-16.672,0.827,-0.88,9.491,0.704,-0.919,9.338,0.105,0.817,-0.438,48.294
'0:02.301',400.216,1369.035,6.547,-0.62,-16.897,0.828,-0.808,9.492,0.666,-0.859,9.377,0.105,0.821,-0.432,48.298
'0:02.305',429.317,1368.687,6.209,-0.569,-17.122,0.84,-0.749,9.445,0.637,-0.781,9.347,0.104,0.821,-0.432,48.302
'0:02.309',407.498,1368.098,5.827,-0.597,-17.144,0.817,-0.676,9.434,0.608,-0.723,9.328,0.109,0.821,-0.436,48.306
'0:02.313',396.695,1367.307,5.085,-1.377,-16.983,0.769,-0.58,9.374,0.59,-0.666,9.26,0.102,0.813,-0.438,48.31
'0:02.316',373.515,1366.544,4.159,-1.447,-16.766,0.782,-0.496,9.4,0.59,-0.548,9.309,0.104,0.819,-0.44,48.314
'0:02.320',383.758,1366.073,3.528,-1.067,-16.717,0.843,-0.473,9.45,0.628,-0.52,9.3,0.102,0.815,-0.44,48.318
'0:02.324',472.742,1366.01,2.712,-0.451,-16.586,0.954,-0.474,9.524,0.753,-0.472,9.362,0.102,0.822,-0.434,48.321
'0:02.328',463.299,1366.24,1.832,-0.164,-16.683,1.1,-0.534,9.67,0.867,-0.54,9.461,0.102,0.822,-0.434,48.325
'0:02.332',379.196,1366.575,1.176,0.644,-16.732,1.233,-0.619,9.816,0.953,-0.58,9.52,0.102,0.815,-0.434,48.329
'0:02.336',303.149,1366.878,0.674,1.781,-16.462,1.367,-0.704,9.937,1.144,-0.676,9.747,0.1,0.817,-0.427,48.333
'0:02.340',249.241,1367.073,0.179,2.594,-16.342,1.452,-0.776,9.998,1.153,-0.752,9.815,0.102,0.817,-0.432,48.337
'0:02.344',264.072,1367.143,-0.622,3.505,-15.941,1.476,-0.813,9.997,1.248,-0.84,9.875,0.098,0.821,-0.436,48.341
'0:02.348',276.208,1367.115,-0.979,4.144,-15.544,1.463,-0.849,9.984,1.278,-0.87,9.836,0.098,0.815,-0.436,48.345
'0:02.352',331.744,1367.045,-1.33,4.609,-15.282,1.427,-0.85,9.911,1.268,-0.919,9.816,0.097,0.819,-0.434,48.349
'0:02.355',386.452,1366.997,-1.878,4.905,-15.001,1.365,-0.862,9.813,1.24,-0.912,9.679,0.097,0.819,-0.434,48.353
'0:02.359',421.501,1366.955,-2.244,4.802,-14.75,1.317,-0.851,9.728,1.164,-0.921,9.619,0.1,0.817,-0.432,48.357
'0:02.363',398.588,1366.781,-2.121,4.454,-14.746,1.305,-0.828,9.644,1.107,-0.864,9.53,0.102,0.815,-0.436,48.361
'0:02.367',365.966,1366.355,-2.343,4.074,-14.566,1.281,-0.793,9.584,1.097,-0.864,9.511,0.105,0.822,-0.434,48.364
'0:02.371',381.33,1365.749,-2.703,3.702,-14.708,1.318,-0.782,9.524,1.137,-0.828,9.395,0.097,0.812,-0.438,48.368
'0:02.375',440.92,1365.244,-2.946,3.679,-14.472,1.33,-0.783,9.487,1.137,-0.789,9.375,0.102,0.817,-0.434,48.372
'0:02.379',505.898,1365.115,-3.023,3.341,-14.469,1.33,-0.76,9.464,1.166,-0.79,9.376,0.102,0.817,-0.434,48.376
'0:02.383',507.498,1365.495,-3.26,3.468,-14.311,1.33,-0.772,9.439,1.147,-0.78,9.356,0.091,0.821,-0.434,48.38
'0:02.387',560.899,1366.293,-3.331,3.876,-13.809,1.33,-0.772,9.427,1.137,-0.789,9.375,0.097,0.821,-0.43,48.384
'0:02.391',526.116,1367.324,-3.124,4.341,-13.667,1.305,-0.796,9.439,1.128,-0.81,9.326,0.097,0.817,-0.43,48.388
'0:02.395',551.457,1368.415,-3.158,4.459,-13.344,1.305,-0.797,9.39,1.109,-0.791,9.267,0.098,0.815,-0.432,48.392
'0:02.398',722.65,1369.446,-3.075,4.75,-13.179,1.244,-0.783,9.39,1.07,-0.838,9.296,0.095,0.822,-0.44,48.396
'0:02.402',659.033,1370.269,-2.709,4.807,-12.85,1.183,-0.795,9.34,1.003,-0.789,9.275,0.093,0.819,-0.434,48.4
'0:02.406',428.783,1370.816,-2.693,4.84,-12.895,1.122,-0.793,9.339,1.003,-0.818,9.285,0.093,0.819,-0.434,48.404
'0:02.410',390.773,1371.168,-2.318,4.849,-12.441,1.06,-0.829,9.277,0.917,-0.837,9.234,0.093,0.815,-0.44,48.407
'0:02.414',454.657,1371.475,-1.908,4.722,-12.108,0.999,-0.817,9.228,0.821,-0.807,9.194,0.1,0.815,-0.444,48.411
'0:02.418',473.275,1371.834,-1.733,4.962,-11.684,0.975,-0.817,9.179,0.803,-0.838,9.047,0.098,0.815,-0.436,48.415
'0:02.422',482.425,1372.297,-1.188,4.525,-11.564,0.926,-0.805,9.118,0.736,-0.839,8.978,0.116,0.813,-0.423,48.419
'0:02.426',521.795,1372.931,-1.197,4.337,-11.115,0.853,-0.78,9.082,0.669,-0.809,8.967,0.095,0.821,-0.434,48.423
'0:02.430',563.86,1373.75,-0.702,3.754,-10.702,0.804,-0.744,9.033,0.631,-0.78,8.898,0.095,0.821,-0.434,48.427
'0:02.434',564.127,1374.712,-0.015,2.946,-10.073,0.792,-0.756,9.021,0.621,-0.789,8.908,0.093,0.815,-0.434,48.431
'0:02.438',540.414,1375.705,0.28,2.462,-9.871,0.816,-0.768,9.045,0.631,-0.8,8.898,0.097,0.821,-0.436,48.435
'0:02.441',518.834,1376.611,0.48,1.917,-9.634,0.877,-0.793,9.057,0.679,-0.799,8.957,0.098,0.817,-0.434,48.439
'0:02.445',536.626,1377.364,0.954,1.17,-9.619,0.926,-0.806,9.082,0.736,-0.819,8.988,0.095,0.815,-0.436,48.443
'0:02.449',556.845,1377.963,1.314,0.761,-9.526,0.987,-0.831,9.119,0.794,-0.917,8.997,0.095,0.822,-0.436,48.446
'0:02.453',542.281,1378.385,1.551,0.16,-9.676,1.011,-0.843,9.119,0.784,-0.898,8.978,0.093,0.817,-0.436,48.45
'0:02.457',524.223,1378.608,1.742,-0.052,-9.537,1.048,-0.82,9.132,0.832,-0.821,8.979,0.093,0.817,-0.436,48.454
'0:02.461',504.537,1378.688,1.776,-0.662,-9.574,1.061,-0.783,9.181,0.851,-0.84,9.028,0.097,0.821,-0.434,48.458
'0:02.465',502.937,1378.733,2.087,-1.024,-9.376,1.11,-0.736,9.207,0.908,-0.79,9.118,0.097,0.819,-0.436,48.462
'0:02.469',565.754,1378.8,1.924,-1.165,-9.462,1.147,-0.747,9.28,0.966,-0.781,9.167,0.097,0.813,-0.434,48.466
'0:02.473',611.58,1378.883,2.275,-1.579,-9.511,1.22,-0.723,9.354,0.984,-0.77,9.217,0.091,0.81,-0.44,48.47
'0:02.477',520.995,1378.949,2.379,-2.034,-9.998,1.27,-0.687,9.44,1.08,-0.742,9.258,0.093,0.817,-0.438,48.474
'0:02.480',419.901,1378.922,2.087,-2.481,-10.002,1.245,-0.661,9.513,1.07,-0.702,9.336,0.091,0.819,-0.434,48.478
'0:02.484',402.109,1378.733,2.075,-2.265,-10.035,1.246,-0.611,9.598,1.089,-0.681,9.414,0.091,0.819,-0.434,48.482
'0:02.488',432.011,1378.441,2.035,-1.945,-10.114,1.246,-0.575,9.623,1.031,-0.7,9.384,0.093,0.821,-0.423,48.486
'0:02.492',466.527,1378.2,1.816,-1.255,-10.028,1.283,-0.599,9.66,1.117,-0.631,9.493,0.093,0.817,-0.436,48.489
'0:02.496',460.605,1378.148,1.527,-0.747,-9.769,1.295,-0.598,9.696,1.097,-0.601,9.542,0.088,0.817,-0.432,48.493
'0:02.500',388.346,1378.214,1.518,0.023,-9.582,1.258,-0.61,9.695,1.059,-0.62,9.532,0.084,0.815,-0.432,48.497
'0:02.504',332.01,1378.124,0.883,0.705,-9.196,1.185,-0.608,9.67,1.039,-0.658,9.58,0.088,0.819,-0.434,48.501
'0:02.508',264.072,1377.563,0.563,1.114,-8.904,1.147,-0.656,9.633,1.011,-0.687,9.52,0.088,0.819,-0.434,48.505
'0:02.512',256.79,1376.423,0.289,1.334,-8.626,1.086,-0.691,9.619,0.953,-0.705,9.549,0.088,0.821,-0.44,48.509
'0:02.516',272.954,1374.883,0.022,1.32,-8.499,1.036,-0.739,9.593,0.828,-0.753,9.488,0.09,0.817,-0.434,48.513
'0:02.520',325.795,1373.301,-0.148,1.099,-8.139,0.975,-0.762,9.568,0.799,-0.772,9.487,0.093,0.815,-0.438,48.517
'0:02.523',354.656,1372.039,-0.465,1.179,-7.963,0.913,-0.809,9.517,0.79,-0.802,9.418,0.088,0.813,-0.434,48.521
'0:02.527',360.311,1371.332,-0.573,1.099,-7.656,0.925,-0.846,9.493,0.772,-0.842,9.359,0.088,0.822,-0.436,48.525
'0:02.531',341.986,1371.304,-0.877,1.005,-7.663,0.937,-0.895,9.444,0.705,-0.88,9.328,0.09,0.813,-0.436,48.529
'0:02.535',339.826,1371.969,-1.324,0.446,-7.326,0.925,-0.884,9.395,0.734,-0.92,9.27,0.09,0.813,-0.436,48.532
'0:02.539',354.923,1373.227,-1.462,-0.117,-7.285,0.901,-0.848,9.335,0.734,-0.93,9.28,0.09,0.815,-0.434,48.536
'0:02.543',366.233,1374.82,-1.893,-0.46,-6.948,0.877,-0.789,9.275,0.696,-0.834,9.202,0.083,0.821,-0.432,48.54
'0:02.547',358.951,1376.486,-2.355,-0.987,-6.58,0.865,-0.717,9.252,0.658,-0.785,9.162,0.088,0.817,-0.436,48.544
'0:02.551',343.587,1378.057,-2.915,-1.198,-6.4,0.854,-0.657,9.253,0.629,-0.727,9.133,0.09,0.819,-0.436,48.548
'0:02.555',355.19,1379.416,-3.106,-1.278,-5.966,0.891,-0.644,9.339,0.629,-0.697,9.162,0.091,0.817,-0.421,48.552
'0:02.559',365.966,1380.434,-3.097,-1.076,-5.846,0.976,-0.669,9.4,0.725,-0.699,9.174,0.091,0.817,-0.421,48.556
'0:02.563',361.938,1380.995,-3.518,-0.334,-5.97,1.086,-0.706,9.485,0.868,-0.717,9.342,0.084,0.817,-0.434,48.56
'0:02.566',374.609,1381.079,-3.854,0.202,-5.958,1.183,-0.743,9.559,0.916,-0.708,9.372,0.086,0.813,-0.436,48.564
'0:02.570',360.311,1380.793,-4.177,1.015,-5.947,1.269,-0.78,9.608,1.05,-0.738,9.452,0.088,0.817,-0.434,48.568
'0:02.574',354.39,1380.27,-4.294,1.724,-5.741,1.293,-0.78,9.632,1.079,-0.767,9.492,0.09,0.813,-0.436,48.571
'0:02.578',363.272,1379.622,-4.59,2.274,-5.636,1.28,-0.803,9.644,1.098,-0.796,9.502,0.084,0.813,-0.438,48.575
'0:02.582',374.048,1378.932,-4.463,2.434,-5.441,1.305,-0.804,9.632,1.117,-0.806,9.502,0.084,0.817,-0.442,48.579
'0:02.586',372.448,1378.305,-4.864,2.965,-5.655,1.305,-0.804,9.62,1.098,-0.815,9.501,0.084,0.817,-0.442,48.583
'0:02.590',376.209,1377.827,-4.9,3.181,-6.089,1.293,-0.804,9.596,1.127,-0.779,9.395,0.088,0.815,-0.432,48.587
'0:02.594',384.851,1377.545,-4.636,3.406,-6.221,1.281,-0.793,9.559,1.117,-0.817,9.424,0.086,0.815,-0.436,48.591
'0:02.598',406.671,1377.475,-4.817,3.162,-6.258,1.256,-0.781,9.511,1.098,-0.787,9.443,0.088,0.821,-0.438,48.595
'0:02.602',433.104,1377.622,-4.787,3.087,-6.213,1.207,-0.793,9.474,1.079,-0.778,9.414,0.086,0.81,-0.438,48.599
'0:02.605',418.807,1377.949,-4.657,3.275,-6.093,1.146,-0.768,9.461,1.041,-0.748,9.413,0.083,0.815,-0.436,48.603
'0:02.609',379.997,1378.388,-4.559,3.298,-6.221,1.11,-0.755,9.449,0.964,-0.777,9.363,0.083,0.815,-0.44,48.607
'0:02.613',341.986,1378.869,-4.359,2.913,-5.94,1.037,-0.731,9.351,0.907,-0.768,9.274,0.086,0.815,-0.44,48.611
'0:02.617',342.52,1379.319,-4.577,1.818,-5.569,0.952,-0.66,9.206,0.831,-0.701,9.156,0.086,0.813,-0.434,48.614
'0:02.621',362.205,1379.657,-4.879,0.869,-5.074,0.843,-0.576,9.073,0.726,-0.692,9.018,0.095,0.815,-0.427,48.618
'0:02.625',394.267,1379.859,-4.99,0.442,-4.403,0.782,-0.527,9.012,0.593,-0.595,8.899,0.086,0.817,-0.44,48.622
'0:02.629',406.404,1379.998,-4.682,0.855,-3.879,0.769,-0.562,9.06,0.535,-0.555,8.928,0.084,0.815,-0.442,48.626
'0:02.633',389.439,1380.169,-4.777,0.813,-3.8,0.842,-0.635,9.108,0.592,-0.613,8.977,0.084,0.815,-0.442,48.63
'0:02.637',361.672,1380.385,-4.682,1.043,-4.205,0.939,-0.708,9.193,0.716,-0.7,9.086,0.084,0.815,-0.442,48.634
'0:02.641',333.344,1380.629,-4.43,1.057,-3.777,0.999,-0.793,9.241,0.745,-0.729,9.125,0.09,0.813,-0.444,48.638
'0:02.645',330.116,1380.985,-4.66,1.273,-3.729,1.072,-0.842,9.253,0.87,-0.838,9.126,0.083,0.813,-0.446,48.642
'0:02.648',322.834,1381.532,-4.765,1.424,-3.208,1.084,-0.866,9.289,0.889,-0.857,9.165,0.09,0.812,-0.44,48.646
'0:02.652',320.674,1382.222,-4.691,1.992,-2.556,1.096,-0.877,9.313,0.908,-0.886,9.195,0.084,0.81,-0.446,48.65
'0:02.656',325.529,1382.947,-4.371,2.368,-2.26,1.12,-0.913,9.361,0.887,-0.913,9.302,0.083,0.812,-0.446,48.654
'0:02.660',345.747,1383.619,-4.26,2.8,-2.039,1.144,-0.961,9.421,0.945,-0.914,9.293,0.088,0.812,-0.44,48.657
'0:02.664',358.951,1384.173,-3.952,3.148,-1.802,1.168,-1.009,9.457,0.945,-0.981,9.331,0.088,0.812,-0.44,48.661
'0:02.668',368.927,1384.574,-3.752,3.19,-1.821,1.168,-1.008,9.481,0.964,-1.01,9.38,0.088,0.815,-0.45,48.665
'0:02.672',383.224,1384.8,-3.392,3.04,-1.716,1.143,-1.032,9.468,0.945,-1.04,9.302,0.088,0.812,-0.453,48.669
'0:02.676',387.812,1384.821,-3.364,2.908,-1.638,1.156,-1.02,9.457,0.974,-1.079,9.321,0.088,0.812,-0.442,48.673
'0:02.680',392.4,1384.626,-3.032,2.749,-1.274,1.168,-1.021,9.421,0.983,-1.05,9.312,0.084,0.815,-0.44,48.677
'0:02.684',375.409,1384.205,-2.715,2.002,-1.207,1.119,-1.008,9.408,0.993,-1.003,9.264,0.083,0.81,-0.444,48.681
'0:02.688',370.021,1383.553,-2.866,1.555,-1.244,1.132,-0.997,9.384,0.955,-1.051,9.214,0.083,0.81,-0.444,48.685
'0:02.691',381.597,1382.706,-2.302,0.916,-1.214,1.095,-0.936,9.397,0.946,-1.012,9.224,0.09,0.812,-0.448,48.689
'0:02.695',398.855,1381.716,-2.158,-0.08,-1.342,1.096,-0.889,9.349,0.926,-0.982,9.273,0.091,0.81,-0.448,48.693
'0:02.699',434.438,1380.643,-2.195,-0.752,-1.27,1.11,-0.769,9.339,0.908,-0.857,9.205,0.088,0.81,-0.446,48.696
'0:02.703',451.429,1379.566,-2.53,-1.532,-1.267,1.086,-0.698,9.28,0.908,-0.741,9.157,0.088,0.813,-0.444,48.7
'0:02.707',449.269,1378.573,-3.214,-2.124,-1.064,1.05,-0.613,9.257,0.879,-0.702,9.147,0.09,0.812,-0.444,48.704
'0:02.711',401.016,1377.695,-3.786,-2.65,-0.63,1.026,-0.564,9.269,0.85,-0.643,9.176,0.091,0.813,-0.453,48.708
'0:02.715',340.626,1376.942,-4.5,-2.556,-0.39,1.075,-0.612,9.342,0.821,-0.622,9.215,0.091,0.813,-0.453,48.712
'0:02.719',309.898,1376.346,-4.83,-2.26,-0.221,1.196,-0.709,9.426,0.907,-0.689,9.323,0.084,0.812,-0.444,48.716
'0:02.723',304.509,1375.946,-5.227,-0.662,0.071,1.28,-0.841,9.583,0.993,-0.758,9.344,0.086,0.813,-0.448,48.72
'0:02.727',313.125,1375.75,-5.461,0.865,-0.146,1.364,-0.971,9.775,1.116,-0.931,9.569,0.09,0.808,-0.444,48.724
'0:02.730',328.489,1375.723,-5.722,2.133,-0.082,1.363,-1.029,9.895,1.192,-1.085,9.716,0.086,0.81,-0.448,48.728
'0:02.734',350.602,1375.778,-6.323,2.923,0.289,1.302,-1.087,9.941,1.143,-1.112,9.793,0.088,0.81,-0.448,48.732
'0:02.738',370.554,1375.865,-6.907,3.665,1.225,1.179,-1.096,9.94,0.998,-1.138,9.829,0.088,0.81,-0.448,48.736
'0:02.742',383.224,1376.047,-7.588,4.746,2.233,1.081,-1.094,9.926,0.922,-1.127,9.789,0.086,0.812,-0.453,48.739
'0:02.746',393.2,1376.458,-7.717,5.103,2.953,1.008,-1.104,9.913,0.826,-1.155,9.777,0.09,0.808,-0.448,48.743
'0:02.750',407.764,1377.172,-7.896,5.183,3.725,0.983,-1.128,9.924,0.807,-1.136,9.748,0.091,0.808,-0.446,48.747
'0:02.754',412.619,1378.151,-7.982,4.952,4.16,0.934,-1.127,9.911,0.749,-1.165,9.698,0.098,0.81,-0.432,48.751
'0:02.758',401.816,1379.274,-8.327,4.351,4.65,0.885,-1.126,9.874,0.759,-1.175,9.678,0.09,0.808,-0.453,48.755
'0:02.762',415.58,1380.42,-8.462,3.585,5.186,0.861,-1.115,9.79,0.702,-1.165,9.677,0.091,0.81,-0.45,48.759
'0:02.766',408.031,1381.493,-8.751,2.819,5.722,0.873,-1.104,9.766,0.654,-1.136,9.618,0.091,0.81,-0.45,48.763
'0:02.770',420.968,1382.424,-8.856,2.237,6.288,0.873,-1.081,9.73,0.644,-1.087,9.638,0.093,0.805,-0.461,48.767
'0:02.773',425.022,1383.159,-9.287,1.518,6.903,0.861,-1.081,9.693,0.703,-1.119,9.531,0.097,0.81,-0.459,48.771
'0:02.777',477.303,1383.637,-9.416,1.193,7.341,0.922,-1.083,9.682,0.751,-1.101,9.513,0.088,0.81,-0.461,48.775
'0:02.781',490.8,1383.772,-9.564,1.353,8.094,0.983,-1.109,9.658,0.78,-1.111,9.503,0.095,0.806,-0.453,48.779
'0:02.785',486.746,1383.539,-9.859,1.461,8.173,1.044,-1.135,9.635,0.828,-1.2,9.474,0.093,0.805,-0.461,48.782
'0:02.789',455.751,1383.034,-10.032,1.165,8.596,1.13,-1.137,9.612,0.876,-1.191,9.465,0.093,0.805,-0.461,48.786
'0:02.793',351.402,1382.417,-10.617,1.273,9.218,1.155,-1.114,9.576,0.953,-1.173,9.447,0.093,0.805,-0.457,48.79
'0:02.797',338.732,1381.845,-11.223,1.161,9.709,1.155,-1.08,9.504,0.964,-1.136,9.36,0.091,0.81,-0.459,48.794
'0:02.801',343.854,1381.455,-11.546,1.508,10.047,1.168,-1.032,9.493,0.954,-1.097,9.37,0.095,0.801,-0.459,48.798
'0:02.805',317.18,1381.361,-11.709,2.392,10.53,1.156,-1.008,9.481,0.916,-1.077,9.36,0.097,0.808,-0.461,48.802
'0:02.809',351.402,1381.619,-12.042,2.871,10.774,1.18,-1.021,9.469,0.964,-1.069,9.341,0.095,0.801,-0.459,48.806
'0:02.813',377.036,1382.128,-12.196,3.392,10.755,1.192,-1.044,9.493,0.964,-1.031,9.292,0.093,0.805,-0.465,48.81
'0:02.816',320.14,1382.622,-12.501,3.937,11.073,1.168,-1.068,9.516,0.983,-1.059,9.341,0.093,0.805,-0.465,48.814
'0:02.820',300.989,1382.849,-12.728,4.661,11.313,1.18,-1.08,9.516,1.002,-1.118,9.322,0.097,0.805,-0.461,48.818
'0:02.824',289.412,1382.8,-12.892,4.901,11.774,1.13,-1.103,9.479,0.964,-1.107,9.36,0.095,0.801,-0.461,48.821
'0:02.828',283.49,1382.689,-12.965,4.67,12.333,1.094,-1.043,9.455,0.945,-1.078,9.321,0.098,0.806,-0.463,48.825
'0:02.832',321.207,1382.758,-13.421,4.769,12.554,1.058,-1.019,9.431,0.858,-1.038,9.33,0.097,0.801,-0.471,48.829
'0:02.836',375.942,1383.048,-13.513,4.783,13.168,1.021,-1.018,9.431,0.849,-1.096,9.309,0.1,0.801,-0.467,48.833
'0:02.840',499.149,1383.375,-13.282,4.595,13.401,1.045,-1.09,9.466,0.839,-1.076,9.329,0.104,0.806,-0.471,48.837
'0:02.844',645.536,1383.546,-13.406,4.647,13.693,1.069,-1.138,9.49,0.81,-1.124,9.367,0.104,0.806,-0.471,48.841
'0:02.848',753.112,1383.595,-12.968,4.802,13.82,1.117,-1.175,9.514,0.867,-1.173,9.368,0.105,0.803,-0.471,48.845
'0:02.852',845.857,1383.72,-12.953,4.727,13.839,1.117,-1.2,9.465,0.944,-1.233,9.339,0.1,0.805,-0.471,48.849
'0:02.855',800.031,1384.044,-12.941,4.257,13.906,1.081,-1.188,9.404,0.935,-1.243,9.319,0.102,0.801,-0.482,48.853
'0:02.859',709.98,1384.487,-13.335,3.228,14.386,0.996,-1.091,9.32,0.82,-1.213,9.279,0.104,0.801,-0.473,48.857
'0:02.863',585.973,1384.881,-13.559,3.073,14.869,0.911,-1.055,9.259,0.772,-1.165,9.22,0.097,0.798,-0.476,48.861
'0:02.867',567.621,1385.138,-13.316,3.11,15.203,0.923,-1.079,9.234,0.715,-1.087,9.151,0.097,0.798,-0.476,48.864
'0:02.871',561.699,1385.309,-13.018,2.612,15.312,0.935,-1.104,9.222,0.745,-1.099,9.073,0.105,0.796,-0.482,48.868
'0:02.875',558.205,1385.494,-13.378,1.753,15.222,0.923,-1.092,9.222,0.745,-1.118,9.102,0.109,0.805,-0.476,48.872
'0:02.879',525.023,1385.686,-13.695,1.175,14.851,0.886,-1.067,9.21,0.754,-1.08,9.064,0.112,0.798,-0.48,48.876
'0:02.883',460.072,1385.811,-13.763,0.611,14.971,0.837,-1.041,9.234,0.716,-1.109,9.034,0.112,0.801,-0.486,48.88
'0:02.887',427.983,1385.863,-14.021,0.479,15.252,0.825,-1.004,9.283,0.648,-1.038,9.16,0.119,0.803,-0.48,48.884
'0:02.891',368.66,1385.842,-14.267,0.536,15.578,0.813,-1.002,9.367,0.619,-1.085,9.208,0.107,0.799,-0.486,48.888
'0:02.895',390.773,1385.79,-14.277,0.785,15.728,0.85,-1.026,9.44,0.648,-1.076,9.189,0.107,0.799,-0.486,48.892
'0:02.898',402.376,1385.773,-14.449,1.212,15.803,0.849,-1.073,9.476,0.685,-1.093,9.326,0.109,0.796,-0.484,48.896
'0:02.902',327.422,1385.856,-14.843,1.471,15.791,0.848,-1.132,9.523,0.704,-1.094,9.327,0.116,0.799,-0.486,48.9
'0:02.906',273.514,1386.114,-15.172,2.063,16.189,0.848,-1.18,9.522,0.656,-1.161,9.335,0.114,0.796,-0.492,48.904
'0:02.910',245.747,1386.626,-15.222,2.241,16.556,0.798,-1.227,9.508,0.666,-1.19,9.345,0.118,0.794,-0.488,48.907
'0:02.914',226.061,1387.372,-15.622,2.312,16.361,0.81,-1.276,9.496,0.646,-1.257,9.363,0.116,0.799,-0.488,48.911
'0:02.918',248.708,1388.229,-16.047,2.514,16.563,0.822,-1.336,9.507,0.608,-1.363,9.352,0.116,0.799,-0.488,48.915
'0:02.922',270.794,1389.062,-16.044,2.918,16.222,0.833,-1.421,9.505,0.637,-1.413,9.333,0.118,0.789,-0.499,48.919
'0:02.926',284.557,1389.721,-16.284,3.101,16.162,0.82,-1.48,9.528,0.665,-1.5,9.381,0.119,0.794,-0.494,48.923
'0:02.930',292.906,1390.097,-16.484,2.744,15.907,0.82,-1.516,9.528,0.665,-1.519,9.381,0.121,0.796,-0.501,48.927
'0:02.934',306.11,1390.115,-16.644,2.739,15.758,0.796,-1.48,9.504,0.637,-1.529,9.332,0.118,0.79,-0.492,48.931
'0:02.938',311.258,1389.658,-16.85,2.251,15.308,0.735,-1.407,9.468,0.454,-1.459,9.3,0.118,0.796,-0.492,48.935
'0:02.941',317.713,1388.557,-17.361,1.785,15.121,0.687,-1.358,9.468,0.598,-1.432,9.302,0.121,0.794,-0.494,48.939
'0:02.945',347.374,1386.755,-17.841,1.734,14.963,0.638,-1.308,9.493,0.493,-1.382,9.272,0.121,0.794,-0.494,48.943
'0:02.949',324.195,1384.414,-17.974,1.917,14.884,0.651,-1.236,9.518,0.503,-1.305,9.263,0.121,0.794,-0.503,48.946
'0:02.953',291.573,1381.866,-18.303,2.265,14.731,0.712,-1.225,9.531,0.512,-1.265,9.322,0.125,0.798,-0.503,48.95
'0:02.957',312.592,1379.458,-18.832,2.988,14.345,0.786,-1.251,9.532,0.512,-1.255,9.341,0.135,0.778,-0.563,48.954
'0:02.961',329.85,1377.461,-19.156,3.674,14.405,0.871,-1.265,9.509,0.675,-1.278,9.325,0.144,0.778,-0.563,48.958
'0:02.965',341.72,1376.085,-19.777,4.407,13.742,0.872,-1.254,9.473,0.713,-1.297,9.364,0.149,0.776,-0.565,48.962
'0:02.969',338.199,1375.548,-20.291,4.816,13.655,0.847,-1.23,9.424,0.723,-1.269,9.335,0.149,0.776,-0.565,48.966
'0:02.973',324.462,1376.029,-21.076,5.61,13.194,0.823,-1.206,9.388,0.647,-1.259,9.266,0.146,0.773,-0.565,48.97
'0:02.977',344.147,1377.618,-21.427,5.977,12.61,0.799,-1.206,9.376,0.638,-1.201,9.237,0.147,0.775,-0.57,48.974
'0:02.980',343.32,1380.277,-21.498,6.287,12.224,0.811,-1.17,9.376,0.609,-1.21,9.226,0.147,0.776,-0.57,48.978
'0:02.984',354.923,1383.842,-21.677,6.959,11.572,0.835,-1.219,9.34,0.609,-1.221,9.207,0.153,0.776,-0.565,48.982
'0:02.988',352.496,1388.034,-21.646,6.996,10.68,0.859,-1.28,9.351,0.657,-1.279,9.246,0.153,0.775,-0.574,48.986
'0:02.992',339.826,1392.481,-22.135,7.278,10.376,0.859,-1.316,9.326,0.687,-1.38,9.08,0.133,0.778,-0.515,48.989
'0:02.996',328.223,1396.795,-22.154,7.006,9.859,0.81,-1.34,9.277,0.648,-1.389,9.06,0.133,0.778,-0.515,48.993
'0:03.000',311.791,1400.611,-22.126,6.935,9.627,0.785,-1.377,9.227,0.552,-1.378,9.048,0.151,0.776,-0.578,48.997
'0:03.004',306.11,1403.643,-21.938,7.264,9.267,0.772,-1.436,9.226,0.639,-1.37,9.03,0.151,0.776,-0.578,49.001
'0:03.008',317.446,1405.702,-21.606,7.63,8.75,0.759,-1.484,9.213,0.629,-1.525,9.058,0.154,0.767,-0.58,49.005
'0:03.012',319.073,1406.751,-21.421,7.894,8.173,0.746,-1.557,9.199,0.543,-1.601,9.027,0.156,0.766,-0.578,49.009
'0:03.016',340.093,1406.932,-21.347,7.88,7.648,0.721,-1.593,9.15,0.571,-1.611,9.047,0.151,0.767,-0.578,49.013
'0:03.020',341.453,1406.528,-21.076,7.659,7.435,0.684,-1.593,9.101,0.486,-1.612,8.938,0.151,0.767,-0.58,49.017
'0:03.023',353.296,1405.821,-20.726,7.823,7.165,0.611,-1.591,9.1,0.466,-1.611,8.967,0.172,0.767,-0.58,49.021
'0:03.027',379.73,1404.974,-20.122,8.645,7.019,0.586,-1.602,9.123,0.418,-1.64,8.927,0.163,0.766,-0.586,49.025
'0:03.031',379.997,1404.155,-19.405,8.988,6.726,0.61,-1.639,9.135,0.408,-1.648,8.995,0.16,0.764,-0.586,49.029
'0:03.035',401.816,1403.643,-18.626,9.468,6.183,0.61,-1.698,9.158,0.418,-1.717,8.965,0.16,0.764,-0.595,49.032
'0:03.039',404.537,1403.726,-18.328,9.731,5.681,0.609,-1.77,9.169,0.456,-1.785,8.995,0.158,0.766,-0.595,49.036
'0:03.043',416.913,1404.479,-17.272,10.107,5.381,0.596,-1.807,9.144,0.427,-1.803,9.033,0.161,0.76,-0.588,49.04
'0:03.047',426.623,1405.674,-16.49,9.844,4.744,0.583,-1.867,9.131,0.398,-1.841,9.042,0.161,0.76,-0.588,49.044
'0:03.051',441.72,1406.953,-15.52,10.031,4.309,0.547,-1.89,9.13,0.359,-1.87,9.051,0.172,0.759,-0.593,49.048
'0:03.055',462.206,1408.034,-14.363,10.182,4.118,0.509,-1.937,9.116,0.341,-1.968,8.991,0.165,0.759,-0.595,49.052
'0:03.059',450.896,1408.765,-13.406,10.017,3.627,0.435,-1.996,9.078,0.245,-1.997,8.911,0.163,0.757,-0.595,49.056
'0:03.063',465.193,1409.096,-12.522,9.397,3.129,0.398,-2.033,9.028,0.223,-2.03,9.194,0.165,0.753,-0.601,49.06
'0:03.066',473.809,1409.072,-11.008,8.791,2.758,0.349,-2.068,8.979,0.168,-2.062,8.948,0.172,0.755,-0.599,49.064
'0:03.070',470.848,1408.765,-9.976,8.143,2.365,0.324,-2.104,8.966,0.158,-2.083,8.899,0.168,0.757,-0.605,49.068
'0:03.074',475.703,1408.26,-9.056,7.574,1.668,0.311,-2.141,8.928,0.168,-2.181,8.86,0.168,0.757,-0.605,49.071
'0:03.078',465.46,1407.703,-7.982,6.794,1.596,0.323,-2.154,8.892,-0.014,-2.063,8.74,0.16,0.766,-0.582,49.075
'0:03.082',479.73,1407.295,-6.988,5.657,1.289,0.299,-2.118,8.832,0.083,-2.153,8.692,0.153,0.771,-0.549,49.079
'0:03.086',471.915,1407.211,-6.378,4.769,0.708,0.324,-2.107,8.832,0.112,-2.145,8.664,0.158,0.767,-0.54,49.083
'0:03.090',468.421,1407.535,-5.344,4.092,1.113,0.337,-2.058,8.894,0.16,-2.145,8.694,0.154,0.767,-0.547,49.087
'0:03.094',488.373,1408.264,-4.531,4.52,1.064,0.447,-2.071,8.98,0.236,-2.076,8.813,0.149,0.767,-0.54,49.091
'0:03.098',462.499,1409.309,-3.635,4.412,0.866,0.557,-2.095,9.078,0.274,-2.086,8.852,0.149,0.767,-0.54,49.095
'0:03.102',416.647,1410.515,-2.934,4.497,0.607,0.654,-2.12,9.164,0.369,-2.143,8.971,0.151,0.773,-0.547,49.099
'0:03.105',364.633,1411.748,-2.398,4.346,0.6,0.728,-2.097,9.201,0.484,-2.114,9.061,0.156,0.767,-0.551,49.103
'0:03.109',357.351,1412.94,-1.798,4.412,0.787,0.728,-2.048,9.226,0.484,-2.114,9.071,0.153,0.766,-0.547,49.107
'0:03.113',338.465,1414.034,-1.382,3.853,1.004,0.693,-1.939,9.264,0.465,-2.027,9.061,0.158,0.766,-0.547,49.111
'0:03.117',327.422,1414.954,-1.271,3.209,1.533,0.633,-1.817,9.29,0.427,-1.939,9.061,0.149,0.767,-0.547,49.114
'0:03.121',316.913,1415.651,-0.853,3.007,1.945,0.584,-1.754,9.351,0.397,-1.81,9.14,0.151,0.769,-0.547,49.118
'0:03.125',314.752,1416.076,-0.382,2.951,2.612,0.585,-1.729,9.412,0.358,-1.787,9.305,0.151,0.769,-0.547,49.122
'0:03.129',291.839,1416.198,0.034,2.528,2.811,0.634,-1.73,9.412,0.406,-1.75,9.258,0.153,0.769,-0.551,49.126
'0:03.133',273.514,1416.056,0.449,2.274,3.039,0.706,-1.792,9.4,0.483,-1.79,9.268,0.151,0.767,-0.547,49.13
'0:03.137',277.542,1415.69,0.822,1.912,3.238,0.78,-1.819,9.352,0.541,-1.821,9.23,0.149,0.769,-0.551,49.134
'0:03.141',250.041,1415.08,1.401,1.832,3.567,0.78,-1.82,9.292,0.531,-1.879,9.2,0.153,0.767,-0.549,49.138
'0:03.145',249.241,1414.181,1.379,1.729,3.661,0.755,-1.844,9.267,0.541,-1.861,9.152,0.153,0.767,-0.547,49.142
'0:03.148',242.759,1412.937,1.896,1.898,4.309,0.706,-1.832,9.218,0.533,-1.864,9.015,0.153,0.767,-0.555,49.146
'0:03.152',238.998,1411.337,1.819,1.762,4.868,0.657,-1.807,9.206,0.456,-1.862,9.013,0.154,0.769,-0.555,49.15
'0:03.156',242.226,1409.501,2.675,0.428,5.179,0.633,-1.795,9.169,0.495,-1.844,8.995,0.156,0.771,-0.545,49.154
'0:03.160',232.25,1407.643,2.764,0.211,5.179,0.658,-1.784,9.157,0.494,-1.814,9.024,0.156,0.767,-0.551,49.157
'0:03.164',232.517,1405.908,3.017,-0.188,5.059,0.67,-1.784,9.146,0.494,-1.834,9.024,0.158,0.766,-0.545,49.161
'0:03.168',226.595,1404.277,3.174,-0.709,5.554,0.707,-1.773,9.146,0.475,-1.795,8.985,0.154,0.769,-0.551,49.165
'0:03.172',222.007,1402.702,3.635,-1.269,5.756,0.707,-1.773,9.158,0.475,-1.795,9.005,0.153,0.767,-0.553,49.169
'0:03.176',239.532,1401.284,3.832,-1.461,6.093,0.732,-1.761,9.159,0.494,-1.815,9.005,0.153,0.767,-0.553,49.173
'0:03.180',244.653,1400.235,3.798,-1.565,6.142,0.732,-1.738,9.147,0.534,-1.788,8.928,0.156,0.767,-0.547,49.177
'0:03.184',231.45,1399.719,3.808,-2.02,6.269,0.72,-1.725,9.159,0.533,-1.768,8.947,0.158,0.764,-0.542,49.181
'0:03.188',212.564,1399.789,3.974,-2.063,6.329,0.732,-1.689,9.16,0.523,-1.747,9.016,0.156,0.769,-0.547,49.185
'0:03.191',207.71,1400.395,4.054,-2.096,6.805,0.708,-1.688,9.196,0.484,-1.765,9.073,0.158,0.764,-0.547,49.189
'0:03.195',205.843,1401.444,4.094,-1.987,6.94,0.72,-1.723,9.28,0.523,-1.716,9.133,0.156,0.764,-0.538,49.193
'0:03.199',209.07,1402.855,4.229,-1.804,6.951,0.768,-1.759,9.341,0.57,-1.754,9.173,0.158,0.771,-0.538,49.196
'0:03.203',258.684,1404.49,4.054,-1.56,6.813,0.805,-1.783,9.353,0.589,-1.763,9.241,0.158,0.771,-0.538,49.2
'0:03.207',271.887,1406.093,4.146,-2.044,7.094,0.768,-1.746,9.366,0.551,-1.783,9.172,0.16,0.771,-0.547,49.204
'0:03.211',208.537,1407.323,3.786,-2.269,7.244,0.696,-1.673,9.317,0.522,-1.774,9.142,0.161,0.769,-0.549,49.208
'0:03.215',165.672,1407.901,3.62,-2.41,7.768,0.635,-1.612,9.33,0.465,-1.667,9.074,0.158,0.773,-0.538,49.212
'0:03.219',150.308,1407.689,3.534,-2.753,7.974,0.623,-1.599,9.342,0.406,-1.653,9.249,0.16,0.769,-0.532,49.216
'0:03.223',159.19,1406.626,3.395,-2.998,8.012,0.622,-1.646,9.377,0.436,-1.655,9.181,0.161,0.769,-0.542,49.22
'0:03.227',168.366,1404.726,3.189,-2.852,7.858,0.671,-1.719,9.425,0.426,-1.761,9.219,0.161,0.769,-0.542,49.224
'0:03.230',186.424,1402.13,2.998,-2.603,7.427,0.719,-1.767,9.485,0.502,-1.79,9.298,0.154,0.767,-0.542,49.228
'0:03.234',194.506,1399.161,2.601,-2.5,7.39,0.73,-1.85,9.569,0.549,-1.886,9.376,0.158,0.773,-0.549,49.232
'0:03.238',198.294,1396.248,2.684,-1.936,7.304,0.718,-1.848,9.617,0.549,-1.886,9.396,0.156,0.771,-0.542,49.236
'0:03.242',192.906,1393.788,2.515,-1.405,7.573,0.681,-1.86,9.604,0.462,-1.894,9.404,0.16,0.773,-0.545,49.239
'0:03.246',185.891,1392.059,2.062,-1.048,7.791,0.62,-1.835,9.58,0.395,-1.844,9.423,0.16,0.771,-0.538,49.243
'0:03.250',185.891,1391.212,1.668,-0.611,8.285,0.559,-1.799,9.519,0.366,-1.833,9.461,0.161,0.767,-0.547,49.247
'0:03.254',207.71,1391.314,1.693,-0.573,8.405,0.498,-1.774,9.458,0.328,-1.854,9.353,0.161,0.767,-0.547,49.251
'0:03.258',195.6,1392.349,1.333,-0.634,8.551,0.474,-1.787,9.397,0.329,-1.836,9.246,0.153,0.769,-0.542,49.255
'0:03.262',193.439,1394.199,1.117,0.009,8.623,0.461,-1.812,9.348,0.33,-1.838,9.168,0.161,0.773,-0.538,49.259
'0:03.266',187.224,1396.603,0.905,-0.371,8.585,0.449,-1.836,9.299,0.264,-1.85,8.981,0.163,0.769,-0.545,49.263
'0:03.270',185.357,1399.2,0.853,-0.554,8.098,0.413,-1.801,9.226,0.244,-1.818,9.118,0.16,0.769,-0.536,49.267
'0:03.273',204.749,1401.632,0.317,-1.067,8.405,0.377,-1.729,9.179,0.196,-1.732,9.02,0.163,0.771,-0.542,49.271
'0:03.277',239.265,1403.632,-0.139,-1.485,8.357,0.328,-1.667,9.191,0.158,-1.701,9.049,0.163,0.771,-0.542,49.275
'0:03.281',253.562,1405.016,-0.215,-1.193,8.387,0.341,-1.666,9.264,0.157,-1.691,9.098,0.161,0.766,-0.534,49.279
'0:03.285',251.135,1405.65,-0.126,-1.395,8.173,0.402,-1.679,9.313,0.205,-1.671,9.128,0.168,0.775,-0.534,49.282
'0:03.289',205.283,1405.49,-0.166,-1.414,8.064,0.462,-1.716,9.338,0.291,-1.721,9.158,0.161,0.771,-0.54,49.286
'0:03.293',162.418,1404.594,-0.388,-1.297,7.315,0.499,-1.74,9.35,0.291,-1.759,9.177,0.165,0.771,-0.547,49.29
'0:03.297',130.889,1403.155,-0.434,-1.038,7.341,0.523,-1.741,9.338,0.329,-1.74,9.198,0.161,0.775,-0.54,49.294
'0:03.301',108.776,1401.378,-0.569,-0.597,7.277,0.524,-1.729,9.338,0.33,-1.74,9.188,0.167,0.769,-0.542,49.298
'0:03.305',102.855,1399.332,-0.529,-0.536,7.139,0.463,-1.68,9.302,0.301,-1.741,9.129,0.167,0.769,-0.542,49.302
'0:03.309',103.922,1396.987,-0.573,-0.634,7.03,0.402,-1.668,9.265,0.234,-1.691,9.128,0.163,0.773,-0.54,49.306
'0:03.313',140.598,1394.408,-0.536,-0.987,6.944,0.366,-1.619,9.229,0.205,-1.692,9.089,0.16,0.773,-0.54,49.31
'0:03.316',235.211,1391.895,-0.336,-1.302,6.622,0.353,-1.619,9.217,0.186,-1.681,9.098,0.163,0.775,-0.542,49.314
'0:03.320',230.649,1389.829,-0.465,-1.861,6.202,0.402,-1.644,9.229,0.206,-1.731,9.03,0.158,0.771,-0.538,49.318
'0:03.324',155.696,1388.48,-0.354,-2.208,5.835,0.451,-1.657,9.242,0.235,-1.713,9.011,0.165,0.773,-0.545,49.321
'0:03.328',117.125,1387.975,-0.296,-2.645,5.58,0.537,-1.671,9.255,0.302,-1.684,9.061,0.165,0.773,-0.545,49.325
'0:03.332',83.97,1388.306,-0.117,-2.504,5.115,0.597,-1.707,9.303,0.388,-1.704,9.092,0.163,0.769,-0.536,49.329
'0:03.336',88.024,1389.359,-0.511,-1.955,4.467,0.671,-1.708,9.341,0.426,-1.722,9.2,0.163,0.769,-0.54,49.333
'0:03.340',141.398,1390.93,-0.69,-1.005,4.624,0.695,-1.732,9.389,0.531,-1.771,9.279,0.167,0.769,-0.54,49.337
'0:03.344',161.351,1392.836,-0.597,-0.413,4.324,0.756,-1.781,9.437,0.55,-1.78,9.318,0.165,0.773,-0.54,49.341
'0:03.348',114.431,1394.976,-0.637,0.493,4.557,0.791,-1.84,9.497,0.579,-1.859,9.289,0.16,0.769,-0.542,49.345
'0:03.352',107.176,1397.196,-0.763,0.949,4.339,0.791,-1.876,9.521,0.607,-1.917,9.338,0.167,0.773,-0.54,49.349
'0:03.355',78.581,1399.207,-0.416,1.485,4.373,0.767,-1.864,9.509,0.559,-1.867,9.347,0.167,0.773,-0.54,49.353
'0:03.359',77.248,1400.698,-0.622,1.489,4.546,0.706,-1.84,9.423,0.549,-1.887,9.357,0.161,0.773,-0.545,49.357
'0:03.363',76.688,1401.566,-0.609,1.146,4.872,0.621,-1.768,9.303,0.473,-1.848,9.248,0.17,0.775,-0.54,49.361
'0:03.367',77.514,1401.994,-0.702,0.226,4.872,0.537,-1.672,9.194,0.331,-1.724,9.022,0.168,0.771,-0.54,49.364
'0:03.371',88.824,1402.231,-0.816,-0.113,4.74,0.439,-1.635,9.109,0.303,-1.696,8.944,0.167,0.773,-0.545,49.368
'0:03.375',79.942,1402.437,-0.742,-0.155,4.8,0.427,-1.623,9.097,0.255,-1.666,8.933,0.167,0.775,-0.545,49.372
'0:03.379',63.751,1402.594,-0.742,-0.724,4.793,0.451,-1.683,9.132,0.226,-1.675,8.952,0.167,0.769,-0.542,49.376
'0:03.383',107.443,1402.608,-0.372,-0.841,4.418,0.511,-1.756,9.18,0.273,-1.772,8.982,0.167,0.769,-0.542,49.38
'0:03.387',243.026,1402.454,-0.379,-0.775,3.972,0.56,-1.804,9.216,0.379,-1.802,9.042,0.163,0.771,-0.545,49.384
'0:03.391',284.024,1402.176,-0.336,-0.865,4.051,0.584,-1.829,9.228,0.388,-1.861,9.042,0.165,0.773,-0.542,49.388
'0:03.395',210.964,1401.817,-0.36,-0.747,3.923,0.56,-1.793,9.204,0.388,-1.87,9.042,0.165,0.773,-0.54,49.392
'0:03.398',100.427,1401.416,-0.175,-0.799,4.201,0.523,-1.756,9.205,0.378,-1.811,9.081,0.17,0.769,-0.547,49.396
'0:03.402',122.54,1401.067,-0.102,-0.822,4.504,0.475,-1.718,9.205,0.312,-1.763,9.012,0.172,0.767,-0.542,49.4
'0:03.406',140.598,1400.824,0.197,-0.949,4.351,0.475,-1.695,9.169,0.283,-1.752,9.021,0.172,0.767,-0.542,49.404
'0:03.410',79.942,1400.764,0.185,-1.118,4.276,0.463,-1.707,9.168,0.264,-1.713,9.021,0.17,0.773,-0.545,49.407
'0:03.414',65.645,1400.984,0.56,-1.344,3.871,0.463,-1.719,9.18,0.254,-1.733,9.011,0.172,0.769,-0.547,49.411
'0:03.418',71.299,1401.454,0.736,-1.302,3.729,0.462,-1.742,9.204,0.292,-1.733,9.051,0.163,0.782,-0.536,49.415
'0:03.422',87.757,1401.897,0.865,-1.137,3.556,0.474,-1.79,9.252,0.292,-1.79,9.099,0.168,0.775,-0.542,49.419
'0:03.426',57.296,1401.984,1.219,-0.869,3.256,0.461,-1.825,9.287,0.291,-1.818,9.177,0.167,0.771,-0.54,49.423
'0:03.430',1.494,1401.604,1.502,-0.949,3.08,0.4,-1.823,9.286,0.301,-1.848,9.099,0.17,0.769,-0.545,49.427
'0:03.434',-10.91,1400.921,1.687,-1.433,2.777,0.376,-1.787,9.262,0.196,-1.846,9.107,0.17,0.769,-0.545,49.431
'0:03.438',-39.504,1400.238,1.955,-2.067,2.919,0.339,-1.775,9.25,0.215,-1.808,9.127,0.172,0.775,-0.54,49.435
'0:03.441',-25.74,1399.809,2.54,-2.636,2.811,0.291,-1.75,9.25,0.138,-1.778,9.058,0.167,0.771,-0.538,49.439
'0:03.445',-11.176,1399.691,3.075,-3.331,2.537,0.291,-1.738,9.202,0.1,-1.768,9.037,0.174,0.769,-0.542,49.443
'0:03.449',10.91,1399.733,3.321,-3.51,2.211,0.315,-1.738,9.238,0.109,-1.806,9.125,0.168,0.771,-0.545,49.446
'0:03.453',32.222,1399.74,3.912,-3.266,1.997,0.376,-1.775,9.287,0.148,-1.788,9.097,0.161,0.775,-0.542,49.45
'0:03.457',25.74,1399.684,4.457,-3.425,1.821,0.462,-1.789,9.252,0.243,-1.827,9.137,0.161,0.775,-0.542,49.454
'0:03.461',27.634,1399.681,5.23,-3.576,1.319,0.523,-1.803,9.228,0.33,-1.839,9.08,0.167,0.775,-0.542,49.458
'0:03.465',55.135,1399.775,5.636,-3.698,1.177,0.572,-1.817,9.192,0.35,-1.821,9.071,0.168,0.775,-0.54,49.462
'0:03.469',55.668,1399.806,6.298,-3.994,1.046,0.56,-1.806,9.144,0.398,-1.871,8.993,0.168,0.773,-0.549,49.466
'0:03.473',45.692,1399.583,6.904,-4.219,0.577,0.56,-1.794,9.12,0.36,-1.862,8.944,0.17,0.778,-0.54,49.47
'0:03.477',13.604,1399.102,7.655,-4.309,0.536,0.596,-1.819,9.108,0.37,-1.862,8.963,0.168,0.773,-0.538,49.474
'0:03.480',17.391,1398.52,8.099,-4.431,-0.071,0.62,-1.845,9.059,0.447,-1.864,8.896,0.168,0.776,-0.542,49.478
'0:03.484',23.846,1397.969,8.567,-4.825,-0.517,0.657,-1.823,8.975,0.438,-1.845,8.867,0.168,0.776,-0.542,49.482
'0:03.488',111.47,1397.485,9.078,-5.079,-0.922,0.621,-1.811,8.927,0.437,-1.864,8.915,0.165,0.778,-0.534,49.486
'0:03.492',254.096,1397.109,9.247,-5.535,-1.274,0.597,-1.775,8.915,0.448,-1.807,8.828,0.168,0.773,-0.534,49.489
'0:03.496',398.055,1396.854,9.567,-5.568,-1.525,0.621,-1.774,8.976,0.448,-1.807,8.858,0.158,0.778,-0.538,49.493
'0:03.500',523.156,1396.67,9.952,-5.244,-1.874,0.645,-1.798,9.048,0.476,-1.807,8.878,0.16,0.778,-0.538,49.497
'0:03.504',480.291,1396.492,10.346,-4.75,-2.395,0.694,-1.809,9.158,0.466,-1.843,9.004,0.167,0.775,-0.534,49.501
'0:03.508',295.867,1396.311,10.801,-4.229,-2.93,0.743,-1.856,9.242,0.542,-1.872,9.093,0.167,0.775,-0.534,49.505
'0:03.512',139.771,1396.102,11.177,-3.956,-3.65,0.742,-1.867,9.29,0.59,-1.911,9.103,0.163,0.776,-0.534,49.509
'0:03.516',75.887,1395.764,11.565,-3.059,-3.777,0.682,-1.841,9.326,0.474,-1.918,9.189,0.167,0.775,-0.53,49.513
'0:03.520',50.28,1395.213,11.743,-2.993,-3.657,0.584,-1.803,9.338,0.445,-1.887,9.208,0.163,0.782,-0.53,49.517
'0:03.523',30.328,1394.418,11.956,-2.955,-3.938,0.511,-1.764,9.386,0.368,-1.847,9.217,0.16,0.778,-0.53,49.521
'0:03.527',41.371,1393.411,12.513,-3.049,-4.07,0.474,-1.775,9.409,0.3,-1.826,9.255,0.156,0.776,-0.526,49.525
'0:03.531',20.352,1392.244,12.978,-3.449,-4.793,0.45,-1.75,9.434,0.31,-1.777,9.265,0.165,0.78,-0.522,49.529
'0:03.535',-3.094,1390.948,13.409,-4.022,-5.145,0.462,-1.714,9.434,0.271,-1.767,9.255,0.165,0.78,-0.522,49.532
'0:03.539',-55.135,1389.578,14.11,-4.764,-5.407,0.475,-1.667,9.387,0.271,-1.747,9.304,0.153,0.778,-0.532,49.536
'0:03.543',-77.248,1388.299,14.006,-5.474,-5.752,0.488,-1.596,9.352,0.32,-1.633,9.208,0.165,0.782,-0.528,49.54
'0:03.547',-74.554,1387.296,14.471,-6.32,-5.838,0.489,-1.513,9.305,0.272,-1.633,9.159,0.161,0.78,-0.522,49.544
'0:03.551',-36.543,1386.654,14.412,-6.996,-5.921,0.478,-1.429,9.246,0.311,-1.557,9.092,0.17,0.789,-0.503,49.548
'0:03.555',-9.843,1386.348,14.341,-7.325,-6.269,0.515,-1.371,9.187,0.321,-1.441,9.122,0.156,0.776,-0.524,49.552
'0:03.559',24.14,1386.261,14.215,-8.02,-6.487,0.528,-1.324,9.152,0.331,-1.412,9.093,0.158,0.783,-0.517,49.556
'0:03.563',20.886,1386.243,14.138,-8.237,-7.067,0.553,-1.3,9.177,0.36,-1.336,9.016,0.158,0.783,-0.517,49.56
'0:03.566',-22.78,1386.243,14.117,-7.969,-7.502,0.626,-1.312,9.25,0.388,-1.365,9.085,0.16,0.785,-0.519,49.564
'0:03.570',-63.217,1386.247,13.941,-7.236,-7.971,0.723,-1.397,9.347,0.503,-1.395,9.135,0.154,0.782,-0.517,49.568
'0:03.574',-84.53,1386.219,13.636,-6.648,-8.297,0.82,-1.458,9.432,0.666,-1.464,9.235,0.154,0.787,-0.513,49.571
'0:03.578',-55.668,1386.1,13.409,-5.483,-8.844,0.881,-1.518,9.48,0.675,-1.492,9.284,0.158,0.789,-0.513,49.575
'0:03.582',-2.294,1385.874,13.452,-4.971,-9.084,0.868,-1.542,9.467,0.714,-1.55,9.313,0.153,0.783,-0.517,49.579
'0:03.586',0.133,1385.578,12.827,-4.872,-9.443,0.808,-1.493,9.455,0.646,-1.549,9.302,0.153,0.783,-0.517,49.583
'0:03.590',-32.222,1385.32,12.553,-4.309,-9.417,0.71,-1.478,9.478,0.541,-1.519,9.291,0.151,0.787,-0.517,49.587
'0:03.594',-106.082,1385.306,12.239,-3.477,-9.267,0.649,-1.477,9.478,0.521,-1.518,9.31,0.154,0.787,-0.517,49.591
'0:03.598',-154.335,1385.759,12.008,-3.425,-9.541,0.648,-1.513,9.477,0.502,-1.556,9.358,0.154,0.783,-0.511,49.595
'0:03.602',-173.487,1386.78,11.808,-3.355,-9.814,0.672,-1.561,9.501,0.559,-1.596,9.349,0.151,0.792,-0.513,49.599
'0:03.605',-167.272,1388.331,11.562,-3.096,-10.324,0.684,-1.621,9.536,0.56,-1.626,9.3,0.153,0.785,-0.507,49.603
'0:03.609',-140.065,1390.31,11.768,-3.139,-10.77,0.696,-1.62,9.585,0.521,-1.633,9.368,0.147,0.789,-0.507,49.607
'0:03.613',-82.102,1392.568,11.709,-2.988,-10.804,0.683,-1.644,9.584,0.521,-1.634,9.358,0.147,0.789,-0.507,49.611
'0:03.617',-74.554,1394.837,11.62,-2.664,-10.852,0.66,-1.596,9.572,0.473,-1.632,9.377,0.146,0.79,-0.507,49.614
'0:03.621',-118.219,1396.753,11.571,-2.843,-11.081,0.636,-1.536,9.513,0.463,-1.594,9.367,0.147,0.785,-0.505,49.618
'0:03.625',-127.128,1398.008,11.279,-3.049,-10.781,0.612,-1.476,9.489,0.444,-1.545,9.328,0.149,0.79,-0.501,49.622
'0:03.629',-92.879,1398.433,10.974,-3.256,-11.077,0.6,-1.452,9.477,0.464,-1.439,9.329,0.151,0.79,-0.501,49.626
'0:03.633',-72.393,1398.046,10.589,-3.463,-11.317,0.637,-1.44,9.514,0.511,-1.44,9.33,0.149,0.789,-0.503,49.63
'0:03.637',-75.621,1397.032,10.552,-3.646,-11.433,0.686,-1.44,9.563,0.463,-1.428,9.408,0.149,0.789,-0.503,49.634
'0:03.641',-96.106,1395.663,10.78,-2.852,-11.433,0.734,-1.488,9.624,0.511,-1.478,9.359,0.144,0.789,-0.501,49.638
'0:03.645',-106.349,1394.213,10.755,-2.819,-11.834,0.807,-1.525,9.673,0.588,-1.527,9.428,0.147,0.787,-0.503,49.642
'0:03.648',-63.217,1392.92,10.546,-1.987,-11.613,0.856,-1.563,9.648,0.616,-1.574,9.487,0.144,0.789,-0.507,49.646
'0:03.652',-15.498,1391.934,10.66,-1.56,-11.774,0.831,-1.551,9.576,0.606,-1.604,9.467,0.147,0.796,-0.503,49.65
'0:03.656',-29.795,1391.307,10.589,-1.541,-11.602,0.771,-1.504,9.491,0.569,-1.548,9.321,0.139,0.787,-0.501,49.654
'0:03.660',-72.66,1390.951,10.481,-1.748,-11.261,0.698,-1.467,9.418,0.521,-1.489,9.291,0.14,0.794,-0.499,49.657
'0:03.664',-66.178,1390.693,10.555,-1.8,-10.968,0.673,-1.455,9.406,0.541,-1.51,9.233,0.14,0.794,-0.499,49.661
'0:03.668',-33.022,1390.456,10.851,-1.847,-11.036,0.698,-1.467,9.43,0.541,-1.52,9.213,0.14,0.792,-0.496,49.665
'0:03.672',-38.144,1390.286,11.122,-2.143,-11.265,0.783,-1.517,9.442,0.57,-1.501,9.233,0.139,0.79,-0.496,49.669
'0:03.676',-46.226,1390.198,11.445,-2.387,-11.883,0.844,-1.566,9.442,0.646,-1.578,9.341,0.142,0.79,-0.496,49.673
'0:03.680',-20.619,1390.146,12.057,-2.528,-11.92,0.893,-1.567,9.443,0.656,-1.607,9.341,0.133,0.796,-0.494,49.677
'0:03.684',-2.294,1390.08,12.273,-2.777,-12.198,0.893,-1.543,9.456,0.695,-1.609,9.283,0.147,0.789,-0.473,49.681
'0:03.688',-3.628,1390.01,12.778,-2.692,-12.531,0.893,-1.531,9.432,0.675,-1.578,9.332,0.147,0.789,-0.473,49.685
'0:03.691',9.309,1389.937,13.187,-2.631,-12.494,0.881,-1.532,9.395,0.714,-1.561,9.274,0.137,0.79,-0.499,49.689
'0:03.695',3.361,1389.836,14.187,-2.373,-12.591,0.917,-1.557,9.395,0.753,-1.601,9.226,0.132,0.792,-0.49,49.693
'0:03.699',-17.125,1389.704,14.732,-2.528,-12.797,0.93,-1.557,9.395,0.734,-1.601,9.206,0.137,0.796,-0.492,49.696
'0:03.703',-30.328,1389.634,15.286,-2.767,-13.157,0.942,-1.545,9.42,0.781,-1.543,9.266,0.133,0.79,-0.49,49.7
'0:03.707',-34.916,1389.704,16.164,-3.195,-13.273,0.906,-1.473,9.348,0.772,-1.573,9.177,0.132,0.796,-0.484,49.704
'0:03.711',4.721,1389.93,16.601,-3.82,-13.749,0.919,-1.414,9.313,0.773,-1.467,9.129,0.135,0.798,-0.488,49.708
'0:03.715',14.164,1390.348,17.022,-4.482,-13.963,0.92,-1.342,9.339,0.725,-1.399,9.11,0.135,0.798,-0.488,49.712
'0:03.719',14.431,1390.986,17.613,-4.097,-14.409,0.957,-1.319,9.327,0.783,-1.4,9.111,0.128,0.794,-0.486,49.716
'0:03.723',-9.576,1391.749,18.168,-4.229,-14.768,1.006,-1.319,9.364,0.82,-1.36,9.209,0.128,0.799,-0.484,49.72
'0:03.727',0.667,1392.464,18.445,-4.365,-14.847,0.994,-1.26,9.281,0.84,-1.322,9.181,0.128,0.801,-0.482,49.724
'0:03.730',3.361,1393.025,18.395,-5.648,-15.338,0.91,-1.14,9.161,0.812,-1.207,9.054,0.13,0.801,-0.482,49.728
'0:03.734',-4.188,1393.45,18.035,-7.212,-15.462,0.789,-1.019,9.064,0.697,-1.167,9.023,0.126,0.798,-0.48,49.732
'0:03.738',-16.591,1393.746,18.263,-7.555,-15.169,0.741,-0.911,9.041,0.63,-0.973,8.965,0.126,0.808,-0.476,49.736
'0:03.742',-22.78,1393.885,18.352,-7.424,-15.387,0.729,-0.873,9.09,0.583,-0.924,8.935,0.128,0.808,-0.476,49.739
'0:03.746',-30.595,1393.889,18.291,-7.438,-15.357,0.802,-0.873,9.164,0.592,-0.933,8.984,0.125,0.806,-0.469,49.743
'0:03.750',-30.062,1393.833,18.112,-7.48,-15.75,0.876,-0.898,9.225,0.63,-0.942,9.043,0.126,0.805,-0.463,49.747
'0:03.754',-37.877,1393.763,17.669,-7.875,-15.492,0.863,-0.898,9.237,0.62,-0.95,9.131,0.125,0.803,-0.471,49.751
'0:03.758',-48.386,1393.631,17.069,-8.73,-15.364,0.839,-0.885,9.261,0.667,-0.921,9.181,0.119,0.805,-0.463,49.755
'0:03.762',-68.339,1393.37,16.499,-8.368,-14.989,0.828,-0.812,9.286,0.618,-0.841,9.269,0.119,0.805,-0.465,49.759
'0:03.766',-107.443,1393.011,16.081,-7.786,-14.33,0.816,-0.798,9.371,0.609,-0.763,9.249,0.119,0.805,-0.465,49.763
'0:03.770',-139.798,1392.641,15.674,-7.541,-13.88,0.852,-0.808,9.493,0.666,-0.82,9.387,0.119,0.805,-0.465,49.767
'0:03.773',-134.383,1392.321,15.12,-7.015,-13.494,0.888,-0.868,9.552,0.684,-0.849,9.426,0.121,0.81,-0.465,49.771
'0:03.777',-147.613,1392.077,14.683,-6.841,-13.337,0.924,-0.917,9.564,0.742,-0.908,9.416,0.118,0.808,-0.465,49.775
'0:03.781',-165.672,1391.955,13.99,-7.818,-13.202,0.9,-0.881,9.54,0.723,-0.917,9.416,0.116,0.803,-0.463,49.779
'0:03.785',-200.988,1391.923,12.851,-8.645,-12.494,0.889,-0.808,9.553,0.703,-0.867,9.504,0.114,0.808,-0.459,49.782
'0:03.789',-201.521,1391.721,11.959,-8.274,-11.793,0.876,-0.832,9.553,0.742,-0.868,9.475,0.112,0.805,-0.461,49.786
'0:03.793',-215.552,1390.906,11.996,-7.734,-11.602,0.913,-0.831,9.638,0.732,-0.848,9.495,0.112,0.805,-0.461,49.79
'0:03.797',-244.12,1389.097,11.485,-7.565,-11.504,0.998,-0.868,9.699,0.809,-0.839,9.535,0.107,0.81,-0.455,49.794
'0:03.801',-290.479,1386.177,11.088,-7.198,-11.471,1.083,-0.917,9.76,0.857,-0.898,9.545,0.114,0.808,-0.459,49.798
'0:03.805',-278.076,1382.358,10.491,-6.808,-11.759,1.132,-0.941,9.797,0.991,-0.996,9.586,0.107,0.806,-0.455,49.802
'0:03.809',-268.1,1378.124,10.06,-6.362,-11.695,1.168,-1.014,9.796,1.029,-1.055,9.625,0.109,0.808,-0.45,49.806
'0:03.813',-267.833,1374.053,9.789,-6.038,-11.467,1.119,-1.013,9.795,0.981,-1.034,9.654,0.111,0.812,-0.453,49.81
'0:03.816',-276.475,1370.628,9.367,-5.544,-11.28,1.082,-1.013,9.77,0.952,-1.062,9.653,0.111,0.812,-0.453,49.814
'0:03.820',-271.354,1368.14,9.155,-5.187,-11.036,1.009,-1.012,9.721,0.933,-1.073,9.594,0.109,0.81,-0.45,49.818
'0:03.824',-275.382,1366.749,9.124,-4.924,-11.025,1.009,-1.037,9.66,0.866,-1.044,9.535,0.105,0.813,-0.45,49.821
'0:03.828',-266.766,1366.512,8.779,-4.304,-11.182,1.021,-1.038,9.624,0.838,-1.034,9.495,0.104,0.808,-0.453,49.825
'0:03.832',-267.566,1367.401,8.841,-4.309,-11.474,0.984,-1.038,9.599,0.809,-1.016,9.427,0.1,0.815,-0.45,49.829
'0:03.836',-275.648,1369.248,8.819,-4.055,-11.647,0.947,-1.025,9.575,0.799,-1.063,9.465,0.1,0.808,-0.455,49.833
'0:03.840',-284.824,1371.715,8.933,-3.735,-11.774,0.935,-1.002,9.514,0.762,-1.064,9.396,0.102,0.81,-0.45,49.837
'0:03.844',-288.052,1374.353,9.028,-3.28,-11.845,0.862,-0.977,9.465,0.704,-1.014,9.425,0.102,0.81,-0.45,49.841
'0:03.848',-281.33,1376.712,8.711,-2.763,-11.894,0.875,-0.954,9.442,0.675,-0.995,9.376,0.104,0.808,-0.453,49.845
'0:03.852',-284.024,1378.409,9.016,-2.241,-11.89,0.9,-0.92,9.382,0.675,-0.938,9.337,0.105,0.812,-0.45,49.849
'0:03.855',-276.208,1379.092,9.182,-2.002,-12.141,0.876,-0.872,9.334,0.715,-0.843,9.221,0.1,0.813,-0.444,49.853
'0:03.859',-283.757,1378.566,9.127,-2.034,-12.216,0.864,-0.849,9.286,0.676,-0.842,9.25,0.097,0.817,-0.442,49.857
'0:03.863',-285.091,1376.897,9.207,-2.143,-12.31,0.852,-0.791,9.166,0.707,-0.827,9.075,0.1,0.813,-0.446,49.861
'0:03.867',-294,1374.461,9.241,-2.514,-12.366,0.792,-0.695,9.058,0.669,-0.769,8.987,0.1,0.813,-0.446,49.864
'0:03.871',-282.93,1371.813,8.25,-3.702,-12.718,0.757,-0.611,8.986,0.602,-0.652,8.967,0.1,0.812,-0.438,49.868
'0:03.875',-277.275,1369.53,8.422,-3.106,-12.76,0.757,-0.527,8.988,0.573,-0.633,8.908,0.097,0.813,-0.436,49.872
'0:03.879',-283.757,1368.028,8.009,-2.955,-12.771,0.795,-0.492,8.989,0.564,-0.546,8.909,0.098,0.824,-0.444,49.876
'0:03.883',-297.494,1367.488,7.511,-3.204,-12.88,0.795,-0.42,9.002,0.574,-0.469,8.851,0.097,0.812,-0.444,49.88
'0:03.887',-305.31,1367.885,6.892,-3.416,-12.73,0.833,-0.385,9.004,0.603,-0.421,8.862,0.093,0.81,-0.44,49.884
'0:03.891',-312.592,1369.094,6.28,-2.767,-12.419,0.869,-0.361,9.041,0.641,-0.421,8.901,0.097,0.81,-0.438,49.888
'0:03.895',-294.267,1370.917,5.824,-2.284,-12.171,0.906,-0.372,9.114,0.66,-0.324,8.941,0.097,0.81,-0.438,49.892
'0:03.898',-285.918,1373.036,5.039,-1.847,-11.797,0.967,-0.372,9.175,0.698,-0.43,8.98,0.095,0.813,-0.44,49.896
'0:03.902',-296.961,1375.04,4.636,-1.334,-11.95,1.028,-0.444,9.284,0.784,-0.448,9.118,0.091,0.819,-0.44,49.9
'0:03.906',-301.015,1376.535,4.396,-0.709,-11.433,1.099,-0.599,9.439,0.86,-0.525,9.226,0.093,0.812,-0.442,49.904
'0:03.910',-293.173,1377.301,4.165,0.056,-11.426,1.147,-0.693,9.595,0.887,-0.688,9.372,0.091,0.819,-0.44,49.907
'0:03.914',-325.262,1377.385,4.063,0.559,-11.538,1.195,-0.8,9.715,0.982,-0.765,9.49,0.095,0.813,-0.434,49.911
'0:03.918',-316.379,1377.071,4.242,1.067,-11.456,1.255,-0.895,9.823,1.048,-0.87,9.647,0.095,0.817,-0.438,49.915
'0:03.922',-296.427,1376.768,4.051,1.574,-11.321,1.254,-0.931,9.835,1.067,-0.928,9.676,0.084,0.817,-0.438,49.919
'0:03.926',-301.282,1376.834,4.1,1.832,-10.804,1.242,-0.919,9.847,1.086,-0.937,9.715,0.09,0.817,-0.436,49.923
'0:03.930',-322.834,1377.427,4.085,1.87,-10.481,1.181,-0.919,9.773,1.03,-0.939,9.587,0.09,0.815,-0.432,49.927
'0:03.934',-351.962,1378.458,4.131,1.818,-10.189,1.157,-0.92,9.701,0.991,-0.938,9.596,0.093,0.817,-0.44,49.931
'0:03.938',-360.845,1379.667,4.1,1.964,-9.897,1.12,-0.896,9.628,0.914,-0.928,9.536,0.09,0.813,-0.434,49.935
'0:03.941',-359.778,1380.796,4.026,2.025,-9.361,1.12,-0.909,9.555,0.915,-0.949,9.458,0.093,0.815,-0.432,49.939
'0:03.945',-350.335,1381.72,4.245,1.894,-9.192,1.108,-0.897,9.543,0.915,-0.92,9.439,0.093,0.815,-0.432,49.943
'0:03.949',-355.19,1382.525,4.22,2.034,-8.994,1.145,-0.911,9.507,0.906,-0.93,9.419,0.088,0.819,-0.436,49.946
'0:03.953',-351.136,1383.382,4.14,1.851,-8.96,1.145,-0.923,9.482,0.944,-0.951,9.39,0.084,0.822,-0.436,49.95
'0:03.957',-358.978,1384.299,4.322,1.715,-8.9,1.145,-0.9,9.447,0.935,-0.941,9.39,0.088,0.819,-0.436,49.954
'0:03.961',-357.084,1385.027,4.168,1.955,-8.608,1.133,-0.888,9.422,0.926,-0.913,9.332,0.088,0.817,-0.434,49.958
'0:03.965',-363.272,1385.24,4.26,1.532,-8.297,1.121,-0.853,9.387,0.926,-0.923,9.332,0.086,0.819,-0.436,49.962
'0:03.969',-368.954,1384.738,4.066,1.461,-8.139,1.109,-0.816,9.375,0.907,-0.893,9.332,0.084,0.813,-0.43,49.966
'0:03.973',-366.233,1383.535,4.048,1.029,-7.765,1.073,-0.78,9.351,0.936,-0.847,9.235,0.084,0.813,-0.43,49.97
'0:03.977',-358.978,1381.831,3.996,0.531,-7.386,1.061,-0.744,9.327,0.859,-0.767,9.263,0.09,0.819,-0.44,49.974
'0:03.980',-371.648,1379.967,3.694,-0.338,-7.416,1.025,-0.696,9.279,0.879,-0.759,9.195,0.083,0.819,-0.436,49.978
'0:03.984',-375.676,1378.228,3.605,-1.052,-7.202,1.037,-0.661,9.268,0.869,-0.671,9.206,0.09,0.817,-0.434,49.982
'0:03.988',-381.624,1376.677,3.445,-1.386,-7.075,1.038,-0.612,9.305,0.888,-0.682,9.196,0.084,0.813,-0.432,49.986
'0:03.992',-396.721,1375.168,3.275,-1.771,-7.034,1.063,-0.587,9.366,0.85,-0.574,9.196,0.088,0.821,-0.427,49.989
'0:03.996',-389.973,1373.611,2.573,-1.593,-6.764,1.1,-0.575,9.415,0.898,-0.574,9.236,0.088,0.821,-0.427,49.993
'0:04.000',-386.745,1372.133,2.712,-1.433,-6.49,1.148,-0.599,9.476,0.917,-0.564,9.266,0.083,0.817,-0.43,49.997
'0:04.004',-374.875,1370.983,2.293,-1.067,-6.382,1.197,-0.624,9.513,1.012,-0.67,9.403,0.086,0.813,-0.438,50.001
'0:04.008',-364.633,1370.311,2.401,-0.305,-6.101,1.233,-0.648,9.561,1.012,-0.661,9.394,0.084,0.817,-0.427,50.005
'0:04.012',-363.539,1370.081,2.029,0.061,-5.962,1.245,-0.684,9.573,1.031,-0.679,9.452,0.086,0.813,-0.43,50.009
'0:04.016',-356.257,1370.203,1.884,0.404,-5.827,1.221,-0.659,9.573,1.031,-0.679,9.443,0.088,0.817,-0.415,50.013
'0:04.020',-367.593,1370.694,1.696,0.724,-5.767,1.172,-0.67,9.584,1.031,-0.719,9.413,0.077,0.815,-0.434,50.017
'0:04.023',-355.457,1371.687,1.539,0.573,-5.685,1.11,-0.704,9.619,0.944,-0.736,9.47,0.077,0.815,-0.434,50.021
'0:04.027',-362.472,1373.262,1.905,0.897,-5.696,1.049,-0.726,9.618,0.905,-0.735,9.469,0.081,0.819,-0.43,50.025
'0:04.031',-362.205,1375.28,1.989,0.94,-5.805,0.987,-0.749,9.604,0.838,-0.762,9.517,0.081,0.819,-0.43,50.029
'0:04.035',-355.19,1377.312,2.069,0.827,-5.898,0.975,-0.762,9.556,0.799,-0.781,9.506,0.084,0.817,-0.434,50.032
'0:04.039',-365.966,1378.855,2.626,0.803,-5.707,0.95,-0.81,9.506,0.762,-0.801,9.427,0.081,0.812,-0.43,50.036
'0:04.043',-383.758,1379.531,2.746,0.738,-5.985,0.938,-0.811,9.457,0.743,-0.821,9.398,0.084,0.819,-0.421,50.04
'0:04.047',-389.973,1379.179,2.835,0.883,-5.651,0.913,-0.823,9.42,0.733,-0.841,9.339,0.084,0.819,-0.421,50.044
'0:04.051',-392.667,1377.855,3.361,0.324,-5.497,0.889,-0.812,9.348,0.666,-0.801,9.358,0.084,0.815,-0.427,50.048
'0:04.055',-388.079,1375.803,3.294,-0.503,-5.377,0.84,-0.777,9.214,0.667,-0.803,9.25,0.084,0.819,-0.427,50.052
'0:04.059',-366.793,1373.346,3.204,-1.992,-5.677,0.817,-0.672,9.047,0.611,-0.729,9.025,0.081,0.817,-0.43,50.056
'0:04.063',-351.696,1370.802,2.94,-3.966,-5.629,0.733,-0.553,8.89,0.497,-0.651,8.907,0.081,0.821,-0.425,50.06
'0:04.066',-402.376,1368.436,2.727,-4.548,-5.602,0.697,-0.432,8.868,0.498,-0.539,8.712,0.084,0.815,-0.43,50.064
'0:04.070',-448.202,1366.39,2.573,-4.285,-5.636,0.673,-0.395,8.88,0.46,-0.411,8.742,0.081,0.819,-0.432,50.068
'0:04.074',-445.508,1364.651,2.216,-4.398,-5.797,0.734,-0.432,8.941,0.546,-0.392,8.802,0.081,0.819,-0.432,50.071
'0:04.078',-447.668,1363.167,2.109,-4.586,-6.374,0.868,-0.493,9.051,0.612,-0.478,8.92,0.079,0.822,-0.43,50.075
'0:04.082',-434.998,1361.933,2.155,-4.022,-6.614,0.977,-0.589,9.159,0.659,-0.535,9.037,0.088,0.826,-0.421,50.079
'0:04.086',-419.634,1360.982,1.933,-3.167,-7.082,1.074,-0.674,9.268,0.831,-0.614,9.127,0.086,0.822,-0.427,50.083
'0:04.090',-415.58,1360.355,1.715,-2.152,-6.955,1.123,-0.685,9.353,0.917,-0.702,9.187,0.074,0.815,-0.43,50.087
'0:04.094',-411.259,1360.024,1.533,-0.879,-6.726,1.135,-0.707,9.474,0.917,-0.681,9.265,0.077,0.813,-0.43,50.091
'0:04.098',-411.525,1359.884,1.598,0.244,-6.528,1.134,-0.741,9.57,0.954,-0.728,9.363,0.077,0.819,-0.427,50.095
'0:04.102',-430.677,1359.748,1.619,0.855,-6.074,1.085,-0.751,9.618,0.925,-0.765,9.43,0.076,0.819,-0.427,50.099
'0:04.105',-385.652,1359.452,1.573,0.597,-6.026,1.073,-0.762,9.654,0.886,-0.801,9.556,0.074,0.822,-0.421,50.103
'0:04.109',-277.009,1358.905,1.564,0.803,-6.179,1.036,-0.797,9.677,0.915,-0.802,9.547,0.081,0.819,-0.427,50.107
'0:04.113',-150.841,1358.177,1.671,0.813,-6.46,1.011,-0.76,9.713,0.876,-0.82,9.595,0.077,0.824,-0.427,50.111
'0:04.117',-67.005,1357.48,1.776,1.118,-6.419,1.011,-0.759,9.774,0.846,-0.818,9.673,0.074,0.821,-0.427,50.114
'0:04.121',4.188,1357.121,1.844,1.424,-6.517,1.072,-0.796,9.798,0.904,-0.809,9.674,0.076,0.817,-0.43,50.118
'0:04.125',8.749,1357.403,1.801,1.419,-6.607,1.121,-0.833,9.798,0.971,-0.848,9.694,0.076,0.817,-0.43,50.122
'0:04.129',-7.415,1358.56,1.622,2.128,-6.951,1.194,-0.87,9.823,0.961,-0.808,9.743,0.074,0.821,-0.423,50.126
'0:04.133',-27.367,1360.689,1.616,2.678,-7.131,1.242,-0.943,9.822,0.999,-0.974,9.762,0.083,0.822,-0.427,50.13
'0:04.137',-76.421,1363.78,1.693,3.289,-7.154,1.217,-0.967,9.785,0.971,-0.964,9.723,0.077,0.817,-0.423,50.134
'0:04.141',-151.375,1367.701,1.41,3.284,-7.304,1.156,-0.967,9.736,0.981,-0.996,9.586,0.074,0.815,-0.427,50.138
'0:04.145',-271.887,1372.161,1.188,3.331,-7.131,1.071,-0.882,9.664,0.924,-0.937,9.576,0.074,0.819,-0.423,50.142
'0:04.148',-351.962,1376.643,1.287,3.261,-6.963,1.036,-0.798,9.604,0.876,-0.908,9.546,0.093,0.819,-0.423,50.146
'0:04.152',-425.289,1380.5,0.733,3.11,-6.876,0.988,-0.714,9.544,0.838,-0.743,9.527,0.093,0.819,-0.423,50.15
'0:04.156',-449.562,1383.194,0.508,2.655,-6.682,0.964,-0.643,9.497,0.771,-0.695,9.419,0.076,0.821,-0.427,50.154
'0:04.160',-448.469,1384.417,-0.077,2.368,-6.588,0.928,-0.571,9.437,0.733,-0.628,9.331,0.074,0.822,-0.43,50.157
'0:04.164',-425.022,1384.069,-0.36,1.856,-6.146,0.892,-0.499,9.378,0.725,-0.562,9.224,0.076,0.821,-0.415,50.161
'0:04.168',-405.07,1382.173,-0.834,1.316,-5.872,0.856,-0.427,9.306,0.687,-0.514,9.175,0.077,0.821,-0.427,50.165
'0:04.172',-408.564,1378.852,-1.407,0.728,-5.452,0.868,-0.428,9.306,0.667,-0.474,9.204,0.079,0.817,-0.419,50.169
'0:04.176',-443.881,1374.367,-1.644,0.32,-5.321,0.93,-0.453,9.343,0.686,-0.474,9.234,0.079,0.817,-0.419,50.173
'0:04.180',-473.009,1369.216,-2.01,0.662,-5.01,1.002,-0.513,9.391,0.754,-0.485,9.225,0.079,0.817,-0.43,50.177
'0:04.184',-484.318,1364.059,-2.552,0.564,-5.186,1.075,-0.561,9.476,0.811,-0.504,9.304,0.076,0.819,-0.425,50.181
'0:04.188',-453.59,1359.511,-2.804,0.475,-5.04,1.099,-0.585,9.548,0.916,-0.524,9.364,0.081,0.819,-0.427,50.185
'0:04.191',-443.614,1356.016,-3.214,1.076,-4.812,1.16,-0.621,9.585,0.973,-0.611,9.442,0.076,0.812,-0.434,50.189
'0:04.195',-444.414,1353.828,-3.518,2.011,-4.253,1.209,-0.669,9.657,0.963,-0.668,9.49,0.076,0.819,-0.425,50.193
