'Elapsed time','chest_ecg','wrist_ppg','wrist_gyro_x','wrist_gyro_y','wrist_gyro_z','wrist_low_noise_accelerometer_x','wrist_low_noise_accelerometer_y','wrist_low_noise_accelerometer_z','wrist_wide_range_accelerometer_x','wrist_wide_range_accelerometer_y','wrist_wide_range_accelerometer_z','wrist_mag_x','wrist_mag_y','wrist_mag_z','sample_times_for_all_signals_apart_from_ecg'
'0:00.000',-72.121,1271.776,-60.678,-2.177,51.709,2.47,-7.983,3.214,2.343,-7.957,3.168,-0.512,0.558,-0.243,15.997
'0:00.004',-67.788,1267.387,-63.199,-3.005,54.852,2.419,-8.091,3.175,2.258,-8.074,3.068,-0.506,0.565,-0.25,16.001
'0:00.008',-83.701,1254.219,-65.48,-4.247,57.749,2.369,-8.223,3.148,2.229,-8.141,3.067,-0.494,0.558,-0.281,16.005
'0:00.012',-72.386,1286.435,-67.719,-5.643,60.838,2.318,-8.367,3.084,2.191,-8.288,2.987,-0.505,0.551,-0.269,16.009
'0:00.016',-75.893,1257.159,-70.515,-7.038,64.081,2.292,-8.523,3.044,2.133,-8.394,2.966,-0.505,0.56,-0.271,16.013
'0:00.020',-73.18,1287.927,-72.98,-8.494,67.591,2.266,-8.619,3.018,2.085,-8.589,2.895,-0.501,0.553,-0.319,16.017
'0:00.023',-68.085,1315.754,-75.911,-10.028,71.056,2.24,-8.775,3.003,2.085,-8.812,2.903,-0.501,0.553,-0.319,16.021
'0:00.027',-51.908,1344.305,-78.453,-11.607,74.597,2.264,-8.86,2.989,2.114,-8.793,2.894,-0.499,0.553,-0.312,16.025
'0:00.031',-40.858,1350.91,-81.073,-12.91,78.453,2.276,-8.896,3.001,2.095,-8.852,2.815,-0.487,0.544,-0.333,16.029
'0:00.035',-43.802,1362.629,-83.517,-14.474,81.611,2.312,-8.908,3.038,2.124,-8.891,2.855,-0.48,0.551,-0.285,16.032
'0:00.039',-40.031,1378.013,-85.734,-15.486,84.853,2.337,-8.861,3.039,2.143,-8.9,2.893,-0.491,0.542,-0.333,16.036
'0:00.043',-35.167,1389.007,-87.916,-16.406,87.981,2.326,-8.836,3.063,2.152,-8.901,2.874,-0.491,0.542,-0.317,16.04
'0:00.047',-35.167,1377.288,-90.106,-17.158,90.748,2.326,-8.752,3.089,2.172,-8.804,2.895,-0.48,0.541,-0.325,16.044
'0:00.051',-24.415,1388.283,-92.034,-17.71,93.078,2.315,-8.666,3.127,2.181,-8.705,2.974,-0.48,0.541,-0.325,16.048
'0:00.055',-12.274,1364.121,-93.672,-18.185,94.021,2.267,-8.581,3.164,2.19,-8.695,2.994,-0.478,0.53,-0.365,16.052
'0:00.059',-9.296,1375.072,-95.6,-18.553,97.01,2.231,-8.471,3.202,2.141,-8.577,3.072,-0.47,0.537,-0.396,16.056
'0:00.063',-3.11,1372.899,-97.387,-18.43,99.479,2.171,-8.385,3.226,2.123,-8.508,3.092,-0.48,0.518,-0.384,16.06
'0:00.066',28.981,1398.553,-98.707,-18.062,101.648,2.123,-8.275,3.252,2.026,-8.349,3.179,-0.456,0.525,-0.407,16.064
'0:00.070',23.324,1392.672,-100.529,-17.418,103.257,2.05,-8.201,3.276,1.987,-8.309,3.228,-0.464,0.509,-0.425,16.068
'0:00.074',36.259,1364.845,-101.68,-17.02,104.729,1.991,-8.091,3.302,1.948,-8.221,3.218,-0.464,0.509,-0.407,16.071
'0:00.078',39.501,1387.558,-103.036,-16.038,106.4,1.918,-8.065,3.301,1.804,-8.081,3.275,-0.461,0.519,-0.407,16.075
'0:00.082',60.509,1418.326,-104.286,-15.057,107.527,1.894,-8.016,3.326,1.813,-8.102,3.255,-0.461,0.519,-0.427,16.079
'0:00.086',60.509,1421.991,-105.317,-14.214,108.868,1.856,-8.015,3.35,1.765,-8.023,3.265,-0.447,0.498,-0.476,16.083
'0:00.090',72.121,1398.553,-106.214,-12.88,109.558,1.819,-8.062,3.336,1.727,-8.022,3.274,-0.454,0.496,-0.442,16.087
'0:00.094',69.144,1434.434,-106.977,-11.561,110.478,1.782,-8.133,3.359,1.669,-8.108,3.273,-0.454,0.502,-0.461,16.091
'0:00.098',87.207,1404.391,-108.001,-10.242,111.306,1.769,-8.156,3.383,1.668,-8.195,3.331,-0.436,0.495,-0.461,16.095
'0:00.102',75.628,1445.428,-108.354,-8.709,112.256,1.756,-8.263,3.416,1.649,-8.253,3.339,-0.436,0.495,-0.461,16.099
'0:00.105',77.514,1473.98,-108.968,-6.977,112.824,1.742,-8.383,3.451,1.668,-8.369,3.368,-0.443,0.489,-0.505,16.103
'0:00.109',89.093,1438.823,-109.166,-4.753,113.352,1.74,-8.526,3.485,1.619,-8.454,3.455,-0.442,0.489,-0.492,16.107
'0:00.113',99.614,1475.471,-109.053,-2.637,114.211,1.726,-8.693,3.541,1.619,-8.647,3.473,-0.442,0.48,-0.505,16.111
'0:00.117',100.97,1495.969,-108.884,-0.414,114.732,1.712,-8.86,3.562,1.648,-8.765,3.453,-0.438,0.477,-0.499,16.114
'0:00.121',91.806,1517.958,-108.601,2.193,115.491,1.673,-9.063,3.607,1.551,-8.976,3.498,-0.419,0.482,-0.503,16.118
'0:00.125',95.015,1504.747,-107.817,5.137,115.851,1.622,-9.229,3.652,1.55,-9.178,3.614,-0.417,0.47,-0.555,16.122
'0:00.129',89.92,1511.352,-107.365,7.774,116.603,1.559,-9.42,3.672,1.492,-9.303,3.602,-0.417,0.47,-0.555,16.126
'0:00.133',83.701,1528.185,-106.045,10.503,117.101,1.496,-9.551,3.668,1.376,-9.544,3.608,-0.398,0.466,-0.576,16.13
'0:00.137',68.615,1573.612,-104.957,12.818,117.584,1.384,-9.717,3.652,1.318,-9.6,3.645,-0.407,0.463,-0.568,16.134
'0:00.141',59.715,1548.001,-103.227,14.474,118.113,1.284,-9.884,3.599,1.222,-9.842,3.612,-0.38,0.461,-0.563,16.138
'0:00.145',47.044,1582.433,-101.751,15.931,118.412,1.185,-10.004,3.486,1.098,-9.988,3.482,-0.394,0.445,-0.603,16.142
'0:00.148',42.181,1562.617,-98.178,16.406,118.833,1.05,-10.147,3.385,0.993,-10.065,3.412,-0.386,0.447,-0.578,16.146
'0:00.152',34.903,1616.098,-96.292,15.456,118.672,0.938,-10.266,3.272,0.869,-10.221,3.281,-0.386,0.447,-0.578,16.15
'0:00.156',19.552,1588.271,-94.449,13.784,118.511,0.814,-10.387,3.099,0.802,-10.328,3.221,-0.389,0.452,-0.607,16.154
'0:00.160',10.917,1586.098,-93.107,10.871,117.998,0.679,-10.472,2.902,0.679,-10.476,2.973,-0.38,0.443,-0.607,16.157
'0:00.164',14.689,1610.26,-91.603,7.283,117.499,0.555,-10.593,2.704,0.593,-10.505,2.893,-0.372,0.447,-0.603,16.161
'0:00.168',-6.054,1610.984,-90.459,2.668,116.94,0.457,-10.642,2.52,0.431,-10.594,2.665,-0.344,0.447,-0.647,16.165
'0:00.172',-12.274,1616.098,-89.145,-2.392,116.158,0.357,-10.763,2.372,0.278,-10.721,2.476,-0.363,0.429,-0.643,16.169
'0:00.176',-12.803,1600.714,-87.895,-8.218,115.514,0.272,-10.835,2.272,0.269,-10.762,2.388,-0.356,0.424,-0.63,16.173
'0:00.180',-7.411,1638.811,-86.582,-14.26,114.656,0.21,-10.908,2.149,0.183,-10.869,2.249,-0.356,0.424,-0.63,16.177
'0:00.184',-18.725,1594.152,-85.741,-20.853,113.506,0.16,-10.968,2.099,0.127,-10.909,2.15,-0.342,0.429,-0.68,16.181
'0:00.188',-20.611,1629.308,-84.576,-27.247,112.325,0.098,-11.027,2.073,0.04,-10.977,2.109,-0.326,0.417,-0.649,16.185
'0:00.191',-26.83,1618.314,-83.467,-33.917,111.268,0.072,-11.11,2.071,-0.007,-11.064,2.049,-0.328,0.415,-0.697,16.189
'0:00.195',-28.981,1586.098,-82.224,-40.924,110.248,0.035,-11.121,2.106,-0.037,-11.082,2.117,-0.33,0.399,-0.674,16.193
'0:00.199',-9.296,1586.822,-81.236,-47.732,108.899,-0.002,-11.192,2.141,-0.047,-11.14,2.106,-0.309,0.401,-0.743,16.196
'0:00.203',-4.996,1608.811,-79.978,-54.616,107.711,-0.015,-11.202,2.177,-0.085,-11.159,2.106,-0.309,0.401,-0.743,16.2
'0:00.207',-4.731,1573.612,-78.432,-61.209,106.216,0.022,-11.25,2.249,-0.086,-11.195,2.252,-0.321,0.383,-0.722,16.204
'0:00.211',6.617,1537.731,-76.963,-67.251,104.982,0.082,-11.298,2.322,-0.038,-11.254,2.262,-0.316,0.395,-0.685,16.208
'0:00.215',3.639,1526.736,-75.148,-73.062,103.296,0.167,-11.335,2.408,0.019,-11.312,2.311,-0.314,0.374,-0.724,16.212
'0:00.219',6.319,1506.239,-73.425,-78.183,101.402,0.241,-11.383,2.48,0.172,-11.332,2.411,-0.304,0.365,-0.747,16.216
'0:00.223',-4.168,1503.298,-71.32,-83.197,99.961,0.351,-11.36,2.567,0.191,-11.342,2.45,-0.316,0.362,-0.747,16.22
'0:00.227',12.009,1515.017,-69.611,-87.536,98.543,0.412,-11.385,2.592,0.354,-11.354,2.482,-0.288,0.358,-0.739,16.224
'0:00.230',6.319,1481.309,-67.514,-92.013,96.527,0.522,-11.386,2.653,0.392,-11.392,2.551,-0.288,0.358,-0.739,16.228
'0:00.234',18.725,1421.991,-65.819,-95.279,95.638,0.644,-11.376,2.716,0.555,-11.384,2.613,-0.298,0.348,-0.781,16.232
'0:00.238',21.438,1417.601,-63.51,-98.193,92.733,0.718,-11.377,2.729,0.575,-11.374,2.633,-0.311,0.341,-0.739,16.236
'0:00.242',42.744,1388.283,-61.801,-101.09,92.672,0.816,-11.355,2.755,0.689,-11.346,2.684,-0.3,0.346,-0.762,16.239
'0:00.246',43.538,1386.067,-59.654,-103.283,89.974,0.914,-11.357,2.78,0.805,-11.376,2.705,-0.3,0.33,-0.758,16.243
'0:00.250',55.414,1342.856,-57.436,-105.077,88.441,1,-11.311,2.782,0.862,-11.406,2.715,-0.298,0.328,-0.731,16.247
'0:00.254',67.258,1284.986,-55.459,-106.702,86.969,1.086,-11.277,2.772,1.016,-11.272,2.758,-0.298,0.328,-0.731,16.251
'0:00.258',84.263,1262.997,-53.771,-107.208,85.582,1.209,-11.244,2.738,1.074,-11.274,2.73,-0.293,0.319,-0.774,16.255
'0:00.262',104.741,1243.224,-52.055,-107.5,83.757,1.308,-11.21,2.728,1.228,-11.218,2.713,-0.298,0.307,-0.779,16.259
'0:00.266',107.157,1227.116,-50.219,-107.07,82.263,1.406,-11.177,2.706,1.373,-11.192,2.696,-0.29,0.3,-0.774,16.263
'0:00.270',89.656,1146.533,-48.531,-106.242,80.699,1.517,-11.156,2.659,1.449,-11.193,2.717,-0.276,0.296,-0.762,16.267
'0:00.273',86.413,1151.647,-46.829,-105.062,79.151,1.59,-11.099,2.613,1.556,-11.137,2.661,-0.269,0.296,-0.758,16.271
'0:00.277',69.673,1136.263,-45.508,-103.375,77.564,1.677,-11.042,2.567,1.576,-11.1,2.593,-0.276,0.291,-0.814,16.275
'0:00.281',56.473,1095.95,-44.089,-101.397,76.222,1.751,-11.008,2.532,1.701,-11.006,2.586,-0.276,0.291,-0.814,16.279
'0:00.285',43.008,1052.015,-42.655,-98.944,74.505,1.801,-10.95,2.497,1.778,-10.987,2.588,-0.281,0.273,-0.802,16.282
'0:00.289',26.003,1013.193,-41.349,-96.245,72.903,1.85,-10.927,2.475,1.797,-10.94,2.539,-0.26,0.268,-0.8,16.286
'0:00.293',37.616,1001.474,-40.205,-93.194,71.478,1.863,-10.905,2.427,1.865,-10.914,2.453,-0.281,0.259,-0.781,16.29
'0:00.297',19.552,983.875,-38.715,-90.465,69.891,1.899,-10.906,2.367,1.836,-10.952,2.472,-0.27,0.264,-0.802,16.294
'0:00.301',7.411,965.551,-37.719,-87.291,68.68,1.912,-10.859,2.356,1.827,-10.894,2.413,-0.248,0.261,-0.806,16.298
'0:00.305',-4.168,971.431,-36.589,-84.424,67.216,1.888,-10.799,2.32,1.827,-10.827,2.375,-0.248,0.255,-0.8,16.302
'0:00.309',-21.173,964.826,-35.212,-81.633,66.066,1.852,-10.763,2.26,1.838,-10.76,2.356,-0.27,0.255,-0.8,16.306
'0:00.313',-26.301,933.334,-34.28,-78.72,64.916,1.828,-10.679,2.237,1.751,-10.672,2.277,-0.265,0.241,-0.843,16.31
'0:00.316',-60.245,914.286,-33.143,-76.389,63.544,1.792,-10.619,2.189,1.751,-10.614,2.278,-0.242,0.24,-0.833,16.314
'0:00.320',-72.121,905.507,-31.01,-72.142,61.114,1.769,-10.487,2.143,1.733,-10.499,2.171,-0.249,0.236,-0.864,16.318
'0:00.324',-99.614,926.729,-30.205,-70.317,59.995,1.746,-10.415,2.119,1.714,-10.451,2.161,-0.258,0.229,-0.827,16.321
'0:00.328',-100.97,934.059,-29.145,-69.213,59.075,1.697,-10.367,2.083,1.647,-10.372,2.141,-0.251,0.231,-0.831,16.325
'0:00.332',-138.453,926.729,-28.474,-68.125,57.941,1.649,-10.293,2.084,1.647,-10.343,2.161,-0.251,0.231,-0.831,16.329
'0:00.336',-155.425,898.178,-27.549,-67.803,56.952,1.551,-10.292,2.058,1.57,-10.265,2.112,-0.244,0.222,-0.814,16.333
'0:00.340',-183.446,954.599,-26.702,-67.619,56.209,1.49,-10.267,2.033,1.484,-10.245,2.032,-0.258,0.222,-0.814,16.337
'0:00.344',-195.588,920.891,-25.897,-67.849,55.45,1.454,-10.218,2.034,1.436,-10.234,2.051,-0.248,0.216,-0.812,16.341
'0:00.348',-213.387,961.886,-25.155,-68.554,54.952,1.443,-10.146,2.011,1.37,-10.127,2.012,-0.249,0.209,-0.843,16.345
'0:00.352',-233.865,966.318,-24.209,-68.968,54.484,1.456,-10.013,2.038,1.398,-10.079,2.022,-0.246,0.215,-0.816,16.349
'0:00.355',-250.87,972.88,-23.99,-69.627,53.993,1.458,-9.893,2.04,1.379,-9.952,2.052,-0.235,0.211,-0.816,16.353
'0:00.359',-263.243,1023.463,-23.256,-70.302,53.426,1.483,-9.809,2.054,1.409,-9.886,1.985,-0.235,0.211,-0.816,16.357
'0:00.363',-275.649,1041.02,-23.107,-70.731,53.196,1.483,-9.797,2.066,1.389,-9.885,2.004,-0.223,0.199,-0.835,16.361
'0:00.367',-292.39,1063.734,-22.458,-71.068,52.79,1.495,-9.773,2.091,1.39,-9.789,1.966,-0.227,0.199,-0.866,16.364
'0:00.371',-281.042,1073.279,-22.013,-70.777,52.422,1.507,-9.785,2.103,1.418,-9.798,1.996,-0.235,0.19,-0.854,16.368
'0:00.375',-283.755,1066.674,-21.462,-71.022,51.824,1.52,-9.737,2.116,1.408,-9.788,2.044,-0.209,0.19,-0.829,16.372
'0:00.379',-280.248,1101.831,-20.628,-70.93,51.387,1.509,-9.688,2.129,1.417,-9.768,2.074,-0.225,0.178,-0.881,16.376
'0:00.383',-259.472,1096.717,-20.035,-71.13,51.165,1.486,-9.555,2.143,1.465,-9.642,2.075,-0.225,0.178,-0.881,16.38
'0:00.387',-244.121,1142.144,-19.435,-71.329,50.82,1.475,-9.375,2.146,1.437,-9.458,2.067,-0.232,0.186,-0.841,16.384
'0:00.391',-247.893,1175.084,-18.941,-71.498,50.475,1.453,-9.242,2.136,1.418,-9.321,2.087,-0.214,0.183,-0.86,16.388
'0:00.395',-233.336,1172.911,-18.693,-72.111,50.084,1.441,-9.122,2.151,1.36,-9.194,2.077,-0.211,0.176,-0.831,16.392
'0:00.398',-215.008,1161.917,-18.326,-72.31,49.801,1.442,-9.038,2.128,1.36,-9.096,2.117,-0.214,0.17,-0.885,16.396
'0:00.402',-211.501,1197.073,-18.079,-72.51,49.969,1.455,-8.965,2.166,1.399,-9,2.109,-0.211,0.172,-0.856,16.4
'0:00.406',-194.794,1241.008,-17.754,-72.724,49.663,1.456,-8.918,2.154,1.274,-8.91,2.117,-0.206,0.17,-0.91,16.404
'0:00.410',-181.858,1217.571,-17.712,-72.878,49.693,1.469,-8.881,2.179,1.399,-8.894,2.051,-0.206,0.17,-0.91,16.407
'0:00.414',-168.361,1248.338,-17.465,-72.77,49.67,1.493,-8.834,2.193,1.38,-8.836,2.002,-0.209,0.162,-0.866,16.411
'0:00.418',-135.211,1278.381,-16.991,-72.663,49.663,1.469,-8.785,2.205,1.399,-8.826,2.042,-0.204,0.163,-0.877,16.415
'0:00.422',-116.056,1300.37,-16.66,-72.617,49.716,1.483,-8.713,2.207,1.379,-8.746,2.15,-0.195,0.147,-0.892,16.419
'0:00.426',-97.993,1293.765,-16.215,-72.249,49.732,1.495,-8.665,2.232,1.427,-8.708,2.17,-0.188,0.146,-0.887,16.423
'0:00.430',-83.436,1286.435,-15.685,-72.356,49.233,1.472,-8.616,2.233,1.379,-8.658,2.189,-0.193,0.144,-0.869,16.427
'0:00.434',-70.236,1301.094,-15.233,-72.203,49.011,1.472,-8.604,2.196,1.36,-8.629,2.179,-0.193,0.144,-0.869,16.431
'0:00.438',-54.323,1351.635,-14.816,-72.188,48.758,1.447,-8.592,2.172,1.389,-8.619,2.199,-0.179,0.151,-0.877,16.435
'0:00.441',-51.345,1372.175,-14.294,-72.402,48.306,1.41,-8.58,2.16,1.322,-8.59,2.13,-0.195,0.135,-0.894,16.439
'0:00.445',-33.017,1351.635,-13.842,-72.54,47.946,1.398,-8.568,2.123,1.36,-8.591,2.121,-0.193,0.149,-0.866,16.443
'0:00.449',-18.725,1391.223,-13.446,-72.678,47.677,1.386,-8.581,2.074,1.341,-8.65,2.091,-0.19,0.139,-0.877,16.446
'0:00.453',-21.438,1393.397,-13.171,-72.755,47.018,1.349,-8.617,2.049,1.294,-8.642,1.954,-0.188,0.14,-0.852,16.45
'0:00.457',-5.26,1406.607,-12.804,-73.031,46.52,1.386,-8.655,1.988,1.198,-8.602,1.923,-0.183,0.14,-0.873,16.454
'0:00.461',-2.845,1388.283,-12.782,-73.368,45.822,1.36,-8.679,1.951,1.295,-8.673,1.846,-0.183,0.14,-0.873,16.458
'0:00.465',-0.662,1438.823,-12.571,-73.629,45.516,1.434,-8.668,1.953,1.304,-8.673,1.866,-0.16,0.13,-0.927,16.462
'0:00.469',-1.489,1397.786,-12.521,-73.583,44.849,1.471,-8.669,1.953,1.381,-8.644,1.887,-0.169,0.117,-0.921,16.466
'0:00.473',11.182,1432.218,-12.542,-73.491,44.358,1.533,-8.634,1.979,1.41,-8.663,1.946,-0.183,0.116,-0.877,16.47
'0:00.477',25.474,1428.553,-12.542,-73.108,43.875,1.557,-8.67,2.015,1.458,-8.645,1.917,-0.174,0.126,-0.892,16.474
'0:00.480',27.889,1413.937,-12.895,-72.418,43.301,1.63,-8.732,2.039,1.516,-8.684,1.947,-0.162,0.121,-0.881,16.478
'0:00.484',31.661,1427.829,-13.432,-71.421,43.025,1.678,-8.78,2.051,1.554,-8.732,2.026,-0.162,0.121,-0.912,16.482
'0:00.488',47.309,1461.536,-13.757,-70.041,42.595,1.727,-8.781,2.076,1.621,-8.754,1.978,-0.167,0.112,-0.912,16.486
'0:00.492',58.921,1412.445,-14.082,-66.254,42.281,1.789,-8.733,2.15,1.659,-8.763,2.027,-0.162,0.114,-0.898,16.489
'0:00.496',57.002,1445.428,-14.386,-63.939,42.273,1.801,-8.647,2.224,1.726,-8.734,2.077,-0.164,0.11,-0.892,16.493
'0:00.500',75.893,1410.272,-15.014,-61.271,42.289,1.839,-8.576,2.275,1.725,-8.664,2.166,-0.152,0.114,-0.854,16.497
'0:00.504',79.4,1402.942,-15.311,-58.833,42.465,1.851,-8.575,2.323,1.782,-8.576,2.285,-0.152,0.114,-0.869,16.501
'0:00.508',79.664,1422.715,-15.749,-55.981,42.58,1.876,-8.563,2.36,1.734,-8.545,2.323,-0.16,0.105,-0.902,16.505
'0:00.512',91.806,1372.899,-16.172,-53.068,42.856,1.875,-8.598,2.42,1.743,-8.554,2.343,-0.16,0.105,-0.902,16.509
'0:00.516',89.093,1399.277,-16.321,-49.986,43.094,1.887,-8.657,2.455,1.81,-8.633,2.363,-0.143,0.103,-0.919,16.513
'0:00.520',75.893,1360.456,-16.419,-47.011,43.439,1.899,-8.704,2.515,1.791,-8.68,2.411,-0.15,0.094,-0.902,16.517
'0:00.523',95.577,1335.527,-16.914,-44.45,43.852,1.849,-8.811,2.513,1.79,-8.796,2.459,-0.125,0.103,-0.892,16.521
'0:00.527',140.868,1370.683,-17.041,-42.012,44.282,1.823,-8.93,2.558,1.742,-8.97,2.447,-0.139,0.085,-0.919,16.525
'0:00.531',244.121,1362.629,-16.801,-39.728,44.864,1.747,-9.097,2.542,1.732,-9.057,2.475,-0.138,0.092,-0.889,16.529
'0:00.535',365.702,1339.916,-16.709,-38.7,44.941,1.66,-9.252,2.502,1.636,-9.221,2.443,-0.143,0.092,-0.904,16.532
'0:00.539',435.541,1340.64,-16.37,-37.597,45.133,1.573,-9.395,2.486,1.559,-9.278,2.442,-0.143,0.092,-0.904,16.536
'0:00.543',496.182,1322.359,-15.904,-37.612,45.232,1.499,-9.454,2.423,1.444,-9.452,2.37,-0.138,0.092,-0.885,16.54
'0:00.547',439.577,1301.819,-15.494,-37.888,45.37,1.412,-9.537,2.361,1.406,-9.501,2.31,-0.139,0.087,-0.892,16.544
'0:00.551',357.067,1286.435,-15.12,-38.746,45.14,1.339,-9.573,2.31,1.301,-9.579,2.2,-0.124,0.092,-0.912,16.548
'0:00.555',268.636,1306.975,-14.675,-39.988,44.834,1.301,-9.621,2.26,1.215,-9.627,2.159,-0.127,0.084,-0.892,16.552
'0:00.559',230.921,1300.37,-14.463,-41.491,44.343,1.276,-9.669,2.211,1.243,-9.617,2.16,-0.125,0.089,-0.881,16.556
'0:00.563',246.801,1290.824,-14.082,-43.024,44.006,1.276,-9.694,2.198,1.186,-9.676,2.12,-0.125,0.089,-0.881,16.56
'0:00.566',265.427,1280.597,-13.729,-44.558,43.477,1.275,-9.754,2.185,1.225,-9.705,2.12,-0.118,0.082,-0.91,16.564
'0:00.570',267.842,1258.608,-13.58,-46.076,42.718,1.311,-9.802,2.209,1.244,-9.793,2.11,-0.104,0.077,-0.898,16.568
'0:00.574',205.281,1284.262,-13.171,-47.394,41.898,1.31,-9.886,2.219,1.282,-9.889,2.178,-0.104,0.073,-0.929,16.571
'0:00.578',173.224,1258.608,-12.818,-48.621,40.664,1.358,-9.959,2.243,1.272,-9.919,2.158,-0.104,0.071,-0.902,16.575
'0:00.582',138.156,1276.932,-12.182,-49.679,39.345,1.37,-10.056,2.23,1.281,-10.006,2.187,-0.101,0.073,-0.958,16.579
'0:00.586',134.649,1275.441,-11.702,-50.66,37.72,1.406,-10.116,2.229,1.311,-10.055,2.177,-0.101,0.064,-0.938,16.583
'0:00.590',133.59,1283.537,-10.982,-50.86,35.988,1.454,-10.165,2.253,1.425,-10.114,2.247,-0.101,0.064,-0.938,16.587
'0:00.594',136.27,1278.381,-10.099,-50.814,34.041,1.503,-10.203,2.24,1.435,-10.143,2.276,-0.092,0.075,-0.894,16.591
'0:00.598',123.07,1286.435,-9.562,-50.645,31.956,1.576,-10.24,2.253,1.493,-10.164,2.257,-0.099,0.069,-0.904,16.595
'0:00.602',122.54,1284.986,-8.609,-49.878,29.603,1.588,-10.277,2.228,1.549,-10.241,2.316,-0.09,0.064,-0.931,16.599
'0:00.605',118.471,1271.051,-8.114,-49.142,27.756,1.649,-10.315,2.192,1.588,-10.252,2.297,-0.094,0.062,-0.921,16.603
'0:00.609',116.321,1267.387,-7.239,-47.624,25.326,1.685,-10.304,2.181,1.666,-10.274,2.23,-0.071,0.066,-0.91,16.607
'0:00.613',133.855,1274.716,-6.794,-45.815,23.294,1.723,-10.282,2.158,1.695,-10.265,2.231,-0.071,0.066,-0.91,16.611
'0:00.617',136.534,1284.262,-6.215,-43.975,21.041,1.784,-10.247,2.171,1.695,-10.236,2.202,-0.089,0.05,-0.944,16.614
'0:00.621',153.01,1277.657,-5.918,-41.798,18.81,1.797,-10.187,2.148,1.724,-10.188,2.183,-0.099,0.061,-0.892,16.618
'0:00.625',150.562,1299.645,-5.353,-39.283,16.534,1.823,-10.127,2.162,1.753,-10.131,2.174,-0.083,0.066,-0.923,16.622
'0:00.629',164.589,1276.208,-5.127,-36.661,14.564,1.835,-10.068,2.163,1.821,-10.055,2.137,-0.076,0.062,-0.952,16.626
'0:00.633',180.767,1262.273,-4.929,-34.101,12.249,1.836,-9.984,2.176,1.83,-10.016,2.157,-0.082,0.052,-0.908,16.63
'0:00.637',182.917,1281.321,-4.386,-31.663,10.11,1.825,-9.91,2.202,1.792,-9.928,2.128,-0.082,0.062,-0.919,16.634
'0:00.641',184.803,1294.489,-4.16,-29.24,8.217,1.801,-9.849,2.239,1.773,-9.909,2.118,-0.082,0.062,-0.919,16.638
'0:00.645',183.711,1266.662,-3.609,-27.293,6.101,1.752,-9.812,2.239,1.762,-9.887,2.216,-0.075,0.055,-0.904,16.642
'0:00.648',196.382,1273.267,-3.157,-25.729,4.185,1.704,-9.763,2.227,1.686,-9.819,2.146,-0.078,0.054,-0.94,16.646
'0:00.652',195.059,1277.657,-2.938,-24.303,2.392,1.655,-9.726,2.215,1.666,-9.77,2.195,-0.082,0.054,-0.915,16.65
'0:00.656',182.388,1296.705,-2.797,-23.291,0.621,1.643,-9.665,2.24,1.618,-9.72,2.224,-0.092,0.055,-0.921,16.654
'0:00.660',169.982,1294.489,-2.055,-22.908,-0.973,1.619,-9.653,2.24,1.58,-9.691,2.165,-0.087,0.048,-0.938,16.657
'0:00.664',153.01,1276.208,-2.161,-22.724,-2.713,1.583,-9.64,2.24,1.58,-9.643,2.146,-0.087,0.048,-0.938,16.661
'0:00.668',148.147,1271.051,-1.886,-22.785,-5.281,1.557,-9.723,2.238,1.542,-9.719,2.174,-0.087,0.055,-0.908,16.665
'0:00.672',129.554,1264.489,-1.688,-22.938,-6.5,1.569,-9.82,2.224,1.513,-9.806,2.183,-0.075,0.052,-0.906,16.669
'0:00.676',132.234,1248.338,-1.582,-22.923,-7.612,1.578,-9.989,2.233,1.503,-9.951,2.191,-0.069,0.059,-0.942,16.673
'0:00.680',120.092,1290.824,-1.377,-23.275,-8.623,1.59,-10.133,2.231,1.513,-10.01,2.181,-0.09,0.05,-0.923,16.677
'0:00.684',104.477,1292.316,-1.073,-23.613,-9.742,1.612,-10.266,2.217,1.531,-10.136,2.229,-0.08,0.052,-0.917,16.681
'0:00.688',100.705,1288.651,-0.487,-23.551,-10.693,1.624,-10.338,2.216,1.579,-10.224,2.229,-0.094,0.048,-0.894,16.685
'0:00.691',96.636,1253.494,-0.085,-23.49,-11.651,1.673,-10.339,2.216,1.588,-10.26,2.366,-0.094,0.048,-0.894,16.689
'0:00.695',82.344,1283.537,0.374,-22.938,-12.808,1.71,-10.292,2.218,1.695,-10.245,2.26,-0.097,0.055,-0.908,16.693
'0:00.699',86.943,1259.332,0.925,-22.524,-13.974,1.785,-10.198,2.184,1.743,-10.226,2.251,-0.085,0.061,-0.912,16.696
'0:00.703',87.472,1273.992,1.356,-21.543,-14.978,1.823,-10.104,2.15,1.763,-10.111,2.165,-0.101,0.046,-0.906,16.7
'0:00.707',52.702,1308.424,1.575,-20.454,-16.105,1.861,-10.021,2.103,1.792,-10.075,2.088,-0.089,0.045,-0.933,16.704
'0:00.711',34.903,1295.256,1.674,-19.427,-17.423,1.898,-9.951,2.069,1.792,-9.998,2.049,-0.092,0.05,-0.904,16.708
'0:00.715',34.903,1297.43,1.893,-18.185,-18.956,1.935,-9.917,2.01,1.822,-9.931,2.031,-0.092,0.05,-0.919,16.712
'0:00.719',35.73,1279.105,2.048,-16.652,-20.19,1.96,-9.87,1.963,1.881,-9.856,1.905,-0.106,0.05,-0.919,16.716
'0:00.723',20.909,1280.597,1.921,-14.996,-21.853,1.985,-9.811,1.928,1.92,-9.868,1.828,-0.104,0.059,-0.892,16.72
'0:00.727',36.259,1295.981,2.013,-13.478,-23.233,1.998,-9.764,1.916,1.948,-9.83,1.848,-0.099,0.055,-0.906,16.724
'0:00.730',49.459,1304.035,1.808,-11.791,-24.85,2.048,-9.717,1.894,1.939,-9.781,1.839,-0.104,0.048,-0.919,16.728
'0:00.734',48.93,1292.316,1.596,-9.89,-26.069,2.072,-9.669,1.895,2.015,-9.733,1.86,-0.104,0.048,-0.889,16.732
'0:00.738',5.525,1296.705,1.278,-7.866,-27.556,2.134,-9.623,1.909,2.054,-9.628,1.841,-0.106,0.052,-0.887,16.736
'0:00.742',-21.967,1304.035,1.37,-5.781,-28.967,2.196,-9.588,1.91,2.151,-9.591,1.814,-0.106,0.052,-0.887,16.739
'0:00.746',-9.561,1353.126,0.727,-2.898,-30.201,2.269,-9.565,1.924,2.15,-9.551,1.854,-0.108,0.048,-0.931,16.743
'0:00.750',-2.283,1356.024,0.29,-0.077,-31.397,2.331,-9.542,1.95,2.256,-9.553,1.846,-0.117,0.05,-0.883,16.747
'0:00.754',27.095,1360.456,-0.304,3.005,-32.554,2.392,-9.544,1.95,2.256,-9.553,1.885,-0.117,0.043,-0.915,16.751
'0:00.758',33.844,1344.305,-0.72,6.133,-33.727,2.429,-9.568,1.962,2.323,-9.543,1.945,-0.097,0.054,-0.904,16.755
'0:00.762',57.565,1356.024,-1.349,9.828,-34.478,2.465,-9.605,1.986,2.361,-9.572,1.955,-0.12,0.039,-0.931,16.759
'0:00.766',56.208,1352.402,-2.055,13.616,-35.267,2.501,-9.665,2.01,2.438,-9.623,1.907,-0.12,0.046,-0.887,16.763
'0:00.770',48.93,1340.64,-2.232,17.357,-36.026,2.524,-9.785,2.069,2.467,-9.739,1.965,-0.12,0.046,-0.887,16.767
'0:00.773',45.159,1333.353,-3.051,21.267,-36.693,2.522,-10.024,2.137,2.447,-9.873,2.032,-0.127,0.05,-0.908,16.771
'0:00.777',65.108,1345.797,-3.369,25.238,-37.621,2.444,-10.37,2.154,2.408,-10.201,2.116,-0.122,0.052,-0.894,16.775
'0:00.781',70.765,1326.024,-3.157,28.979,-38.479,2.354,-10.717,2.146,2.359,-10.404,2.104,-0.132,0.059,-0.877,16.779
'0:00.785',71.592,1301.819,-2.648,32.353,-39.621,2.278,-11.016,2.14,2.272,-10.829,2.148,-0.115,0.048,-0.887,16.782
'0:00.789',82.079,1269.602,-1.532,35.343,-40.503,2.152,-11.253,2.122,2.069,-11.166,2.152,-0.125,0.054,-0.95,16.786
'0:00.793',77.779,1266.662,0.099,38.149,-41.982,2.065,-11.396,2.118,2.05,-11.253,2.122,-0.125,0.054,-0.95,16.79
'0:00.797',80.458,1287.927,1.624,40.77,-43.301,1.991,-11.431,2.092,1.973,-11.369,2.11,-0.143,0.05,-0.91,16.794
'0:00.801',101.764,1264.489,3.517,42.702,-45.041,1.919,-11.394,2.044,1.926,-11.379,2.05,-0.139,0.061,-0.883,16.798
'0:00.805',102.326,1221.235,5.014,44.634,-47.087,1.883,-11.274,1.985,1.907,-11.311,2.021,-0.136,0.057,-0.879,16.802
'0:00.809',98.522,1241.775,6.716,46.06,-49.18,1.861,-11.131,1.914,1.879,-11.224,1.972,-0.145,0.062,-0.917,16.806
'0:00.813',95.313,1212.457,8.376,47.302,-51.441,1.837,-10.999,1.844,1.841,-11.07,1.885,-0.155,0.071,-0.871,16.81
'0:00.816',96.636,1235.895,9.972,48.268,-53.863,1.827,-10.88,1.773,1.87,-10.897,1.819,-0.159,0.064,-0.917,16.814
'0:00.820',84.792,1230.057,10.854,49.096,-56.086,1.816,-10.737,1.691,1.823,-10.809,1.789,-0.159,0.064,-0.917,16.818
'0:00.824',86.149,1259.332,11.949,49.986,-58.562,1.806,-10.582,1.633,1.823,-10.626,1.713,-0.171,0.068,-0.873,16.821
'0:00.828',66.994,1221.96,13.037,50.676,-61.176,1.844,-10.439,1.588,1.824,-10.52,1.655,-0.169,0.077,-0.887,16.825
'0:00.832',48.401,1238.111,14.11,51.81,-63.912,1.87,-10.272,1.591,1.891,-10.298,1.687,-0.169,0.075,-0.892,16.829
'0:00.836',48.665,1268.878,14.83,53.512,-66.81,1.897,-10.068,1.571,1.901,-10.065,1.689,-0.169,0.073,-0.915,16.833
'0:00.840',35.465,1331.137,16.285,58.357,-72.352,1.997,-9.878,1.588,1.931,-9.999,1.602,-0.169,0.073,-0.915,16.837
'0:00.844',21.173,1335.527,16.702,61.884,-74.781,2.072,-9.711,1.592,2.017,-9.767,1.605,-0.169,0.073,-0.915,16.841
'0:00.848',19.288,1337.742,17.133,66.3,-77.181,2.172,-9.545,1.633,2.066,-9.681,1.587,-0.181,0.087,-0.904,16.845
'0:00.852',15.781,1411.721,17.168,71.252,-79.25,2.272,-9.39,1.697,2.229,-9.479,1.641,-0.183,0.078,-0.923,16.849
'0:00.855',14.954,1402.218,17.267,77.002,-81.335,2.395,-9.308,1.725,2.296,-9.412,1.642,-0.202,0.08,-0.883,16.853
'0:00.859',2.547,1465.201,17.126,83.32,-82.998,2.518,-9.297,1.787,2.412,-9.346,1.655,-0.202,0.091,-0.877,16.857
'0:00.863',-10.123,1501.849,17.288,91.538,-84.593,2.64,-9.323,1.837,2.593,-9.375,1.823,-0.218,0.096,-0.881,16.861
'0:00.867',-11.447,1525.287,17.387,97.656,-86.248,2.75,-9.373,1.898,2.632,-9.385,1.834,-0.209,0.098,-0.892,16.864
'0:00.871',-1.224,1547.233,17.585,105.966,-87.429,2.822,-9.458,1.934,2.699,-9.435,1.825,-0.209,0.098,-0.892,16.868
'0:00.875',-3.374,1557.503,17.761,114.645,-88.464,2.869,-9.578,1.992,2.747,-9.513,1.854,-0.228,0.101,-0.866,16.872
'0:00.879',16.575,1575.828,18.227,124.075,-89.184,2.855,-9.78,2.085,2.784,-9.706,1.931,-0.218,0.11,-0.91,16.876
'0:00.883',-9.826,1583.882,18.722,133.152,-89.797,2.791,-9.994,2.166,2.764,-9.839,2.077,-0.239,0.101,-0.887,16.88
'0:00.887',6.319,1586.822,19.4,141.815,-90.158,2.641,-10.267,2.158,2.6,-10.116,2.159,-0.237,0.121,-0.852,16.884
'0:00.891',0.132,1571.438,20.671,149.205,-89.974,2.455,-10.492,2.116,2.445,-10.385,2.174,-0.246,0.124,-0.854,16.888
'0:00.895',-3.639,1536.282,22.288,156.167,-89.69,2.269,-10.668,2.11,2.32,-10.489,2.191,-0.246,0.124,-0.854,16.892
'0:00.898',-15.516,1524.563,24.11,162.146,-89.46,2.072,-10.844,2.092,2.098,-10.768,2.185,-0.255,0.13,-0.833,16.896
'0:00.902',5.79,1513.568,26.193,166.624,-89.023,1.874,-11.021,2.038,1.964,-10.844,2.153,-0.244,0.144,-0.835,16.9
'0:00.906',-10.388,1508.412,28.164,170.104,-88.694,1.713,-11.198,1.971,1.696,-11.095,1.99,-0.258,0.146,-0.854,16.904
'0:00.910',-14.954,1532.617,30.551,172.312,-88.487,1.516,-11.316,1.858,1.504,-11.278,1.858,-0.26,0.144,-0.883,16.907
'0:00.914',-2.845,1473.98,33.079,172.68,-88.057,1.343,-11.423,1.696,1.418,-11.317,1.778,-0.272,0.153,-0.837,16.911
'0:00.918',-1.224,1504.023,35.113,171.668,-87.467,1.197,-11.41,1.573,1.17,-11.413,1.588,-0.279,0.167,-0.843,16.915
'0:00.922',4.168,1462.985,37.027,170.258,-87.046,1.087,-11.373,1.475,1.064,-11.403,1.547,-0.279,0.167,-0.843,16.919
'0:00.926',6.054,1446.153,38.806,167.176,-86.601,0.977,-11.313,1.378,0.931,-11.297,1.39,-0.27,0.169,-0.827,16.923
'0:00.930',2.283,1490.131,40.551,163.296,-86.379,0.881,-11.216,1.282,0.892,-11.238,1.35,-0.276,0.178,-0.854,16.927
'0:00.934',28.981,1446.153,41.85,158.942,-85.835,0.808,-11.107,1.235,0.758,-11.14,1.329,-0.284,0.186,-0.82,16.931
'0:00.938',13.597,1491.579,43.107,153.759,-85.367,0.736,-11.034,1.186,0.624,-11.091,1.21,-0.295,0.199,-0.829,16.935
'0:00.941',20.082,1471.082,43.955,148.546,-85.198,0.687,-10.974,1.162,0.615,-10.984,1.191,-0.293,0.208,-0.791,16.939
'0:00.945',54.058,1526.012,44.823,142.658,-84.547,0.675,-10.925,1.2,0.558,-10.935,1.2,-0.293,0.208,-0.791,16.943
'0:00.949',64.578,1498.185,45.642,136.893,-84.401,0.651,-10.888,1.2,0.577,-10.936,1.162,-0.29,0.22,-0.791,16.946
'0:00.953',75.893,1541.395,46.511,131.204,-84.064,0.639,-10.911,1.224,0.51,-10.838,1.142,-0.302,0.222,-0.825,16.95
'0:00.957',78.573,1588.271,47.253,125.899,-83.957,0.664,-10.875,1.248,0.508,-10.874,1.288,-0.304,0.229,-0.779,16.954
'0:00.961',100.408,1612.433,47.839,121.085,-83.727,0.701,-10.888,1.285,0.566,-10.865,1.289,-0.309,0.232,-0.812,16.958
'0:00.965',86.413,1596.325,48.601,116.515,-83.773,0.774,-10.901,1.322,0.643,-10.876,1.3,-0.277,0.254,-0.804,16.962
'0:00.969',98.257,1608.044,49.018,112.621,-83.88,0.871,-10.938,1.347,0.682,-10.876,1.32,-0.309,0.243,-0.82,16.966
'0:00.973',108.248,1665.914,49.929,109.554,-84.003,1.018,-10.965,1.397,0.835,-10.956,1.371,-0.309,0.243,-0.82,16.97
'0:00.977',93.427,1659.351,50.572,107.316,-84.363,1.14,-11.003,1.446,0.921,-11.005,1.401,-0.312,0.257,-0.779,16.974
'0:00.980',115.527,1658.627,51.37,105.982,-84.393,1.299,-11.005,1.485,1.104,-11.026,1.463,-0.314,0.273,-0.787,16.978
'0:00.984',133.028,1672.519,52.055,105.828,-84.922,1.433,-11.044,1.534,1.324,-10.99,1.545,-0.305,0.278,-0.806,16.982
'0:00.988',128.991,1633.698,52.888,106.442,-85.114,1.567,-11.083,1.548,1.401,-11.011,1.546,-0.328,0.289,-0.756,16.986
'0:00.992',125.22,1667.405,53.545,108.052,-85.398,1.664,-11.169,1.548,1.574,-11.072,1.539,-0.319,0.298,-0.77,16.989
'0:00.996',126.576,1605.871,53.926,109.999,-85.628,1.773,-11.352,1.534,1.622,-11.169,1.568,-0.33,0.298,-0.758,16.993
'0:01.000',115.262,1627.092,54.59,112.774,-85.789,1.869,-11.522,1.556,1.747,-11.423,1.597,-0.33,0.298,-0.758,16.997
'0:01.004',101.499,1574.379,55.176,116.193,-85.873,1.88,-11.642,1.591,1.776,-11.54,1.597,-0.333,0.307,-0.762,17.001
'0:01.008',113.376,1524.563,56.165,119.735,-85.773,1.842,-11.676,1.65,1.785,-11.569,1.617,-0.34,0.319,-0.754,17.005
'0:01.012',107.686,1489.364,58.905,126.559,-85.298,1.756,-11.698,1.661,1.699,-11.636,1.575,-0.325,0.325,-0.737,17.009
'0:01.016',92.865,1491.579,60.134,129.104,-85.175,1.622,-11.684,1.61,1.651,-11.676,1.487,-0.326,0.339,-0.762,17.013
'0:01.020',68.085,1435.883,61.801,130.745,-84.945,1.512,-11.695,1.524,1.507,-11.674,1.484,-0.339,0.337,-0.726,17.017
'0:01.023',24.68,1389.732,63.072,132.124,-84.723,1.414,-11.718,1.425,1.45,-11.673,1.444,-0.339,0.337,-0.726,17.021
'0:01.027',4.168,1382.402,64.95,132.37,-84.761,1.328,-11.707,1.315,1.325,-11.732,1.324,-0.325,0.356,-0.743,17.025
'0:01.031',-35.73,1328.197,66.511,131.726,-84.715,1.218,-11.67,1.242,1.2,-11.682,1.264,-0.335,0.355,-0.741,17.029
'0:01.035',-68.085,1288.651,68.192,130.867,-84.746,1.194,-11.61,1.194,1.134,-11.663,1.194,-0.333,0.374,-0.703,17.032
'0:01.039',-77.779,1254.219,69.696,129.38,-84.876,1.158,-11.598,1.158,1.105,-11.595,1.185,-0.337,0.381,-0.705,17.036
'0:01.043',-120.919,1232.23,71.285,127.463,-85.244,1.171,-11.526,1.159,1.076,-11.546,1.156,-0.326,0.395,-0.72,17.04
'0:01.047',-139.512,1254.219,72.839,126.007,-85.114,1.184,-11.49,1.148,1.087,-11.529,1.078,-0.337,0.397,-0.71,17.044
'0:01.051',-162.968,1242.5,74.449,123.4,-85.214,1.135,-11.453,1.136,1.107,-11.522,0.942,-0.337,0.397,-0.71,17.048
'0:01.055',-181.296,1243.224,75.897,120.318,-85.39,1.099,-11.356,1.125,1.029,-11.353,1.088,-0.316,0.411,-0.674,17.052
'0:01.059',-207.2,1245.44,77.613,117.006,-85.528,1.002,-11.283,1.076,0.962,-11.322,1.097,-0.344,0.417,-0.672,17.056
'0:01.063',-216.894,1260.824,78.87,113.449,-85.919,0.905,-11.173,1.077,0.924,-11.254,1.077,-0.34,0.429,-0.653,17.06
'0:01.066',-250.308,1268.111,80.339,109.539,-86.256,0.833,-11.087,1.054,0.828,-11.108,1.008,-0.326,0.441,-0.666,17.064
'0:01.070',-257.321,1262.273,81.638,105.108,-86.862,0.785,-10.99,1.055,0.751,-11.066,1.076,-0.337,0.44,-0.645,17.068
'0:01.074',-277.006,1321.592,83.192,100.477,-87.406,0.75,-10.881,1.056,0.712,-10.911,1.086,-0.337,0.44,-0.645,17.071
'0:01.078',-288.056,1357.515,84.456,95.601,-88.464,0.763,-10.749,1.083,0.693,-10.736,1.029,-0.337,0.456,-0.618,17.075
'0:01.082',-312.603,1351.635,85.889,89.667,-89.299,0.765,-10.628,1.109,0.645,-10.677,1.058,-0.326,0.463,-0.651,17.079
'0:01.086',-327.954,1399.277,86.836,87.061,-90.127,0.753,-10.495,1.136,0.636,-10.56,1.039,-0.332,0.472,-0.634,17.083
'0:01.090',-319.882,1454.207,87.81,81.066,-90.901,0.718,-10.374,1.149,0.626,-10.481,1.108,-0.325,0.479,-0.593,17.087
'0:01.094',-295.069,1485.699,88.834,76.159,-91.744,0.682,-10.276,1.187,0.636,-10.335,1.138,-0.326,0.48,-0.601,17.091
'0:01.098',-275.914,1512.077,89.477,71.268,-92.657,0.659,-10.191,1.212,0.635,-10.237,1.178,-0.298,0.489,-0.609,17.095
'0:01.102',-265.691,1589.762,90.543,66.331,-93.737,0.623,-10.069,1.25,0.606,-10.129,1.217,-0.298,0.489,-0.609,17.099
'0:01.105',-245.478,1593.427,91.066,61.347,-94.634,0.588,-9.971,1.288,0.519,-10.03,1.256,-0.325,0.479,-0.607,17.103
'0:01.109',-220.93,1621.979,92.175,56.594,-95.125,0.577,-9.851,1.326,0.51,-9.933,1.256,-0.323,0.496,-0.574,17.107
'0:01.113',-229.035,1691.568,93.093,51.626,-95.976,0.578,-9.718,1.353,0.491,-9.826,1.267,-0.328,0.5,-0.563,17.111
'0:01.117',-210.145,1709.892,93.75,46.597,-96.558,0.592,-9.621,1.416,0.452,-9.737,1.277,-0.319,0.511,-0.586,17.114
'0:01.121',-200.451,1715.73,94.195,42.028,-97.271,0.629,-9.536,1.466,0.519,-9.621,1.318,-0.326,0.505,-0.572,17.118
'0:01.125',-180.767,1723.059,94.809,37.213,-97.907,0.642,-9.488,1.491,0.509,-9.494,1.357,-0.326,0.505,-0.572,17.122
'0:01.129',-171.338,1742.108,95.247,32.951,-98.704,0.716,-9.442,1.493,0.577,-9.484,1.408,-0.311,0.521,-0.53,17.126
'0:01.133',-178.352,1758.983,95.565,28.673,-99.141,0.765,-9.406,1.519,0.634,-9.417,1.409,-0.328,0.516,-0.576,17.13
'0:01.137',-160.288,1777.307,96.122,24.962,-99.923,0.838,-9.408,1.544,0.73,-9.409,1.45,-0.34,0.518,-0.524,17.134
'0:01.141',-152.447,1783.87,96.497,21.666,-100.253,0.925,-9.385,1.582,0.817,-9.4,1.481,-0.344,0.53,-0.519,17.138
'0:01.145',-148.411,1786.81,96.356,19.028,-100.874,1.023,-9.399,1.607,0.864,-9.419,1.52,-0.325,0.53,-0.496,17.142
'0:01.148',-137.362,1789.026,96.532,16.483,-101.303,1.156,-9.436,1.681,0.998,-9.46,1.552,-0.349,0.539,-0.471,17.146
'0:01.152',-144.111,1785.361,97.005,15.18,-101.786,1.327,-9.499,1.731,1.18,-9.528,1.72,-0.349,0.539,-0.471,17.15
'0:01.156',-127.668,1783.145,96.998,14.229,-102.215,1.474,-9.526,1.781,1.257,-9.548,1.731,-0.337,0.539,-0.507,17.154
'0:01.160',-105.535,1773.642,97.45,13.631,-102.736,1.572,-9.492,1.807,1.44,-9.59,1.724,-0.339,0.544,-0.528,17.157
'0:01.164',-101.235,1761.923,97.033,13.646,-102.89,1.647,-9.432,1.869,1.497,-9.553,1.715,-0.342,0.537,-0.463,17.161
'0:01.168',-118.769,1772.151,97.309,14.168,-103.005,1.647,-9.36,1.895,1.564,-9.446,1.786,-0.349,0.546,-0.434,17.165
'0:01.172',-107.984,1743.599,96.709,14.858,-102.897,1.648,-9.251,1.909,1.574,-9.319,1.836,-0.351,0.546,-0.427,17.169
'0:01.176',-110.663,1725.275,96.504,15.609,-102.46,1.626,-9.105,1.972,1.535,-9.221,1.846,-0.351,0.546,-0.461,17.173
'0:01.180',-91.244,1707.676,96.151,16.238,-101.893,1.627,-8.971,2.059,1.516,-9.044,1.925,-0.354,0.555,-0.461,17.177
'0:01.184',-86.413,1701.113,95.522,16.882,-101.203,1.567,-8.837,2.109,1.506,-8.956,1.955,-0.363,0.539,-0.434,17.181
'0:01.188',-54.852,1672.519,94.265,16.59,-99.18,1.544,-8.691,2.172,1.399,-8.826,2.022,-0.37,0.548,-0.427,17.185
'0:01.191',-44.067,1699.622,93.884,16.176,-98.26,1.545,-8.63,2.221,1.399,-8.758,2.081,-0.382,0.555,-0.39,17.189
'0:01.195',-45.688,1649.806,93.185,15.609,-96.612,1.545,-8.533,2.247,1.399,-8.62,2.151,-0.373,0.564,-0.377,17.193
'0:01.199',-25.739,1669.579,92.238,14.766,-95.447,1.534,-8.448,2.284,1.456,-8.512,2.25,-0.377,0.569,-0.4,17.196
'0:01.203',-37.086,1638.087,91.426,13.662,-93.645,1.559,-8.4,2.298,1.427,-8.444,2.26,-0.377,0.569,-0.4,17.2
'0:01.207',9.296,1660.8,90.529,12.527,-92.388,1.585,-8.328,2.324,1.379,-8.365,2.289,-0.391,0.562,-0.371,17.204
'0:01.211',49.459,1674.735,89.209,10.948,-90.464,1.574,-8.255,2.349,1.455,-8.288,2.311,-0.394,0.56,-0.375,17.208
'0:01.215',171.04,1635.913,87.937,9.353,-88.962,1.598,-8.184,2.351,1.484,-8.211,2.283,-0.4,0.571,-0.375,17.212
'0:01.219',283.755,1666.681,86.786,7.391,-87.084,1.612,-8.124,2.352,1.484,-8.142,2.361,-0.382,0.573,-0.342,17.216
'0:01.223',372.186,1677.675,85.099,5.091,-85.29,1.649,-8.076,2.39,1.484,-8.094,2.342,-0.398,0.565,-0.377,17.22
'0:01.227',442.819,1656.411,83.573,2.683,-83.604,1.673,-8.016,2.391,1.504,-8.056,2.304,-0.387,0.567,-0.335,17.224
'0:01.230',380.523,1646.865,81.913,0.092,-81.35,1.711,-7.945,2.429,1.494,-7.987,2.353,-0.387,0.567,-0.335,17.228
'0:01.234',285.376,1669.579,80.19,-2.009,-79.357,1.724,-7.909,2.443,1.599,-7.901,2.404,-0.398,0.574,-0.381,17.232
'0:01.238',204.223,1676.184,78.439,-4.278,-77.824,1.761,-7.861,2.468,1.599,-7.881,2.405,-0.414,0.576,-0.304,17.236
'0:01.242',152.183,1641.027,76.567,-6.21,-75.594,1.799,-7.777,2.494,1.638,-7.901,2.415,-0.414,0.581,-0.308,17.239
'0:01.246',162.439,1673.243,74.753,-7.774,-73.639,1.861,-7.718,2.557,1.676,-7.764,2.485,-0.422,0.581,-0.321,17.243
'0:01.250',160.288,1664.465,72.902,-9.154,-71.646,1.934,-7.669,2.631,1.724,-7.735,2.515,-0.426,0.578,-0.285,17.247
'0:01.254',164.324,1618.314,71.221,-10.288,-69.822,2.021,-7.598,2.706,1.848,-7.649,2.596,-0.426,0.578,-0.285,17.251
'0:01.258',107.421,1616.865,69.428,-11.331,-67.768,2.107,-7.539,2.781,1.925,-7.63,2.617,-0.421,0.589,-0.283,17.255
'0:01.262',30.867,1627.859,67.81,-11.975,-66.097,2.194,-7.443,2.857,1.991,-7.532,2.746,-0.415,0.585,-0.298,17.259
'0:01.266',-6.617,1615.373,66.158,-12.42,-63.989,2.257,-7.335,2.92,2.068,-7.465,2.757,-0.438,0.573,-0.304,17.263
'0:01.270',-47.838,1595.601,64.47,-12.941,-62.034,2.343,-7.216,2.972,2.202,-7.329,2.859,-0.417,0.574,-0.315,17.267
'0:01.273',-96.107,1587.546,62.641,-13.232,-60.095,2.393,-7.168,3.034,2.231,-7.241,2.918,-0.447,0.587,-0.281,17.271
'0:01.277',-135.211,1547.233,60.762,-13.202,-58.202,2.442,-7.096,3.097,2.269,-7.174,2.929,-0.421,0.585,-0.329,17.275
'0:01.281',-100.441,1507.688,58.806,-13.554,-56.423,2.504,-7.036,3.123,2.327,-7.097,2.95,-0.421,0.585,-0.329,17.279
'0:01.285',-31.396,1511.352,57.027,-14.106,-54.53,2.554,-6.977,3.173,2.336,-7.095,3.019,-0.454,0.58,-0.283,17.282
'0:01.289',21.703,1520.898,54.929,-14.321,-52.414,2.591,-6.928,3.223,2.403,-7.019,3.03,-0.454,0.596,-0.256,17.286
'0:01.293',74.272,1471.806,52.931,-15.042,-50.498,2.641,-6.869,3.236,2.471,-6.922,3.062,-0.463,0.583,-0.237,17.29
'0:01.297',89.92,1492.304,51.059,-15.563,-48.536,2.678,-6.809,3.262,2.508,-6.864,3.092,-0.454,0.597,-0.202,17.294
'0:01.301',82.344,1473.255,48.891,-16.13,-46.597,2.716,-6.749,3.288,2.547,-6.797,3.074,-0.454,0.589,-0.26,17.298
'0:01.305',42.446,1461.536,46.808,-16.698,-44.742,2.741,-6.69,3.301,2.585,-6.777,3.123,-0.454,0.589,-0.26,17.302
'0:01.309',44.332,1471.082,44.484,-16.974,-42.687,2.741,-6.617,3.327,2.643,-6.7,3.135,-0.471,0.594,-0.235,17.306
'0:01.313',41.122,1463.752,42.408,-17.357,-40.633,2.791,-6.546,3.341,2.653,-6.642,3.125,-0.468,0.592,-0.208,17.31
'0:01.316',52.437,1464.477,40.127,-17.756,-38.916,2.78,-6.473,3.342,2.624,-6.545,3.145,-0.468,0.592,-0.204,17.314
'0:01.320',78.308,1450.542,37.825,-17.771,-36.923,2.805,-6.425,3.392,2.652,-6.446,3.244,-0.48,0.59,-0.218,17.318
'0:01.324',74.007,1476.92,35.508,-18.078,-34.968,2.83,-6.366,3.394,2.681,-6.437,3.225,-0.475,0.58,-0.237,17.321
'0:01.328',47.309,1454.207,33.573,-18.001,-33.16,2.855,-6.306,3.407,2.701,-6.36,3.226,-0.473,0.589,-0.202,17.325
'0:01.332',44.332,1462.261,31.222,-18.246,-31.427,2.881,-6.234,3.409,2.729,-6.322,3.198,-0.473,0.589,-0.202,17.329
'0:01.336',36.259,1493.753,29.039,-18.43,-29.649,2.905,-6.199,3.421,2.748,-6.224,3.286,-0.47,0.594,-0.195,17.333
'0:01.340',13.068,1456.423,26.772,-18.476,-28.131,2.93,-6.163,3.435,2.758,-6.185,3.277,-0.484,0.585,-0.237,17.337
'0:01.344',-50.816,1491.579,24.378,-18.4,-26.445,2.942,-6.139,3.459,2.777,-6.175,3.327,-0.471,0.578,-0.254,17.341
'0:01.348',-59.98,1503.298,22.02,-18.338,-24.659,2.979,-6.139,3.472,2.834,-6.146,3.357,-0.484,0.589,-0.195,17.345
'0:01.352',-22.497,1475.471,19.689,-18.246,-22.973,3.016,-6.176,3.472,2.825,-6.185,3.317,-0.501,0.59,-0.172,17.349
'0:01.355',56.208,1479.861,17.112,-18.124,-21.332,3.04,-6.237,3.483,2.824,-6.233,3.386,-0.501,0.59,-0.172,17.353
'0:01.359',66.729,1523.796,14.739,-17.955,-19.577,3.063,-6.297,3.507,2.873,-6.303,3.317,-0.499,0.594,-0.183,17.357
'0:01.363',47.574,1533.341,9.696,-17.219,-16.105,3.111,-6.357,3.555,2.921,-6.341,3.386,-0.487,0.589,-0.195,17.361
'0:01.367',61.336,1534.066,7.253,-16.882,-14.081,3.135,-6.405,3.578,2.987,-6.428,3.494,-0.482,0.594,-0.212,17.364
'0:01.371',93.129,1529.676,4.866,-16.376,-12.019,3.147,-6.441,3.626,2.968,-6.477,3.435,-0.496,0.587,-0.208,17.368
'0:01.375',131.142,1503.298,2.408,-15.686,-10.018,3.172,-6.44,3.687,2.987,-6.495,3.532,-0.471,0.585,-0.229,17.372
'0:01.379',141.662,1511.352,0.332,-15.026,-8.025,3.16,-6.439,3.724,2.977,-6.533,3.532,-0.492,0.581,-0.237,17.376
'0:01.383',144.111,1507.688,-2.168,-14.29,-5.826,3.172,-6.438,3.784,2.948,-6.504,3.502,-0.492,0.581,-0.237,17.38
'0:01.387',130.613,1535.515,-4.527,-13.738,-3.603,3.172,-6.438,3.808,2.947,-6.444,3.65,-0.499,0.578,-0.191,17.384
'0:01.391',99.349,1545.06,-6.511,-13.033,-1.364,3.184,-6.437,3.857,2.985,-6.462,3.709,-0.485,0.596,-0.223,17.388
'0:01.395',86.149,1515.742,-8.87,-12.297,0.805,3.171,-6.461,3.88,3.014,-6.462,3.748,-0.512,0.587,-0.195,17.392
'0:01.398',75.364,1504.023,-11.306,-11.714,3.173,3.171,-6.461,3.88,3.013,-6.471,3.768,-0.51,0.589,-0.166,17.396
'0:01.402',60.245,1536.282,-13.383,-11.469,5.235,3.196,-6.497,3.856,3.052,-6.434,3.719,-0.501,0.589,-0.162,17.4
'0:01.406',65.372,1550.174,-15.706,-10.963,7.558,3.158,-6.521,3.855,3.043,-6.473,3.739,-0.501,0.585,-0.235,17.404
'0:01.410',51.908,1515.742,-18.051,-10.825,10.011,3.158,-6.57,3.818,2.995,-6.561,3.62,-0.487,0.585,-0.235,17.407
'0:01.414',53.529,1506.963,-20.791,-10.748,12.126,3.133,-6.642,3.768,2.956,-6.667,3.628,-0.505,0.578,-0.21,17.411
'0:01.418',56.738,1511.352,-23.319,-10.779,14.541,3.107,-6.726,3.718,2.957,-6.716,3.608,-0.489,0.587,-0.231,17.415
'0:01.422',72.651,1561.168,-26.073,-11.224,17.032,3.118,-6.847,3.703,2.939,-6.844,3.5,-0.503,0.585,-0.187,17.419
'0:01.426',64.281,1526.012,-28.715,-11.638,19.316,3.142,-6.956,3.665,2.967,-6.912,3.519,-0.496,0.589,-0.216,17.423
'0:01.430',39.237,1523.071,-31.193,-11.944,21.884,3.14,-7.065,3.639,2.996,-7.05,3.47,-0.491,0.587,-0.21,17.427
'0:01.434',25.739,1544.336,-33.672,-12.251,24,3.127,-7.125,3.626,2.966,-7.096,3.576,-0.491,0.587,-0.21,17.431
'0:01.438',24.382,1561.893,-36.003,-12.68,26.154,3.127,-7.161,3.625,2.957,-7.184,3.536,-0.501,0.592,-0.208,17.435
'0:01.441',5.26,1531.85,-38.114,-12.558,28.553,3.066,-7.148,3.637,2.928,-7.194,3.506,-0.513,0.578,-0.2,17.439
'0:01.445',14.689,1528.952,-40.226,-12.696,30.408,3.018,-7.111,3.625,2.899,-7.134,3.555,-0.513,0.589,-0.187,17.443
'0:01.449',38.674,1545.785,-42.387,-12.68,32.24,2.945,-7.061,3.6,2.823,-7.105,3.466,-0.501,0.587,-0.218,17.446
'0:01.453',-21.967,1530.401,-44.414,-12.527,33.872,2.884,-6.988,3.588,2.765,-7.056,3.446,-0.496,0.581,-0.214,17.45
'0:01.457',-20.909,1531.85,-46.448,-12.634,35.643,2.811,-6.939,3.564,2.698,-7.007,3.416,-0.501,0.574,-0.252,17.454
'0:01.461',-72.386,1514.293,-48.34,-12.972,37,2.738,-6.926,3.539,2.613,-6.968,3.356,-0.501,0.574,-0.252,17.458
'0:01.465',12.009,1504.023,-50.501,-13.324,38.334,2.701,-6.937,3.514,2.584,-6.968,3.337,-0.501,0.571,-0.216,17.462
'0:01.469',139.247,1520.131,-52.881,-14.122,39.46,2.676,-7.009,3.488,2.526,-7.015,3.325,-0.494,0.576,-0.279,17.466
'0:01.473',235.222,1520.131,-54.979,-15.042,41.216,2.663,-7.046,3.464,2.517,-7.035,3.296,-0.499,0.567,-0.243,17.47
'0:01.477',261.357,1517.958,-57.26,-15.962,42.434,2.662,-7.118,3.45,2.507,-7.132,3.295,-0.503,0.576,-0.237,17.474
'0:01.480',240.879,1471.082,-59.399,-16.866,44.205,2.674,-7.202,3.448,2.449,-7.14,3.323,-0.503,0.573,-0.256,17.478
'0:01.484',219.044,1467.417,-61.765,-17.694,45.608,2.66,-7.274,3.459,2.526,-7.258,3.314,-0.503,0.573,-0.256,17.482
'0:01.488',151.653,1487.915,-63.849,-18.43,47.271,2.684,-7.334,3.483,2.535,-7.404,3.303,-0.505,0.573,-0.237,17.486
'0:01.492',113.078,1481.309,-66.193,-19.258,49.042,2.659,-7.442,3.48,2.525,-7.442,3.361,-0.498,0.564,-0.254,17.489
'0:01.496',98.522,1499.634,-68.616,-19.703,51.288,2.646,-7.549,3.478,2.477,-7.529,3.321,-0.498,0.573,-0.252,17.493
'0:01.500',104.212,1487.915,-70.967,-20.286,53.288,2.619,-7.718,3.439,2.448,-7.605,3.358,-0.487,0.565,-0.296,17.497
'0:01.504',85.057,1480.585,-73.898,-21.037,55.856,2.605,-7.875,3.4,2.429,-7.839,3.298,-0.506,0.555,-0.302,17.501
'0:01.508',72.915,1442.488,-76.433,-21.267,58.378,2.579,-8.079,3.359,2.439,-8.054,3.267,-0.482,0.558,-0.294,17.505
'0:01.512',51.61,1455.698,-78.849,-21.834,61.375,2.565,-8.224,3.32,2.429,-8.131,3.256,-0.482,0.558,-0.294,17.509
'0:01.516',17.931,1474.704,-81.652,-22.279,64.134,2.575,-8.356,3.305,2.353,-8.316,3.166,-0.505,0.553,-0.277,17.513
'0:01.520',6.054,1416.834,-84.442,-22.402,67.361,2.562,-8.452,3.304,2.372,-8.433,3.165,-0.503,0.544,-0.329,17.517
'0:01.523',49.724,1437.374,-87.267,-22.785,70.612,2.549,-8.524,3.314,2.371,-8.5,3.242,-0.48,0.546,-0.315,17.521
'0:01.527',68.35,1395.612,-89.816,-22.77,73.655,2.586,-8.548,3.339,2.391,-8.531,3.125,-0.48,0.537,-0.34,17.525
'0:01.531',19.288,1425.655,-92.33,-22.647,76.475,2.598,-8.572,3.374,2.4,-8.548,3.262,-0.484,0.535,-0.371,17.529
'0:01.535',-163.233,1382.402,-94.696,-22.264,79.664,2.622,-8.523,3.436,2.409,-8.537,3.37,-0.484,0.535,-0.371,17.532
'0:01.539',-296.161,1352.402,-98.891,-21.62,85.49,2.562,-8.473,3.473,2.437,-8.498,3.4,-0.491,0.544,-0.356,17.536
'0:01.543',-279.719,1331.862,-101.243,-20.96,88.41,2.55,-8.4,3.522,2.389,-8.457,3.468,-0.499,0.534,-0.354,17.54
'0:01.547',-171.867,1313.538,-102.909,-19.826,91.652,2.513,-8.386,3.57,2.389,-8.448,3.399,-0.487,0.534,-0.335,17.544
'0:01.551',-25.739,1284.986,-104.399,-18.921,92.074,2.49,-8.313,3.62,2.369,-8.397,3.546,-0.482,0.528,-0.354,17.548
'0:01.555',55.944,1294.489,-105.783,-17.372,94.243,2.441,-8.287,3.644,2.33,-8.356,3.624,-0.485,0.523,-0.388,17.552
'0:01.559',71.294,1301.094,-106.928,-16.238,97.355,2.38,-8.236,3.692,2.281,-8.306,3.662,-0.484,0.519,-0.375,17.556
'0:01.563',57.829,1251.278,-108.163,-14.597,99.931,2.319,-8.211,3.716,2.186,-8.256,3.651,-0.484,0.519,-0.375,17.56
'0:01.566',9.032,1235.17,-108.898,-12.972,101.939,2.222,-8.172,3.739,2.147,-8.244,3.699,-0.478,0.511,-0.411,17.564
'0:01.570',-14.954,1273.992,-109.286,-11.116,103.794,2.124,-8.17,3.75,2.041,-8.213,3.737,-0.461,0.512,-0.419,17.568
'0:01.574',-11.182,1225.625,-110.07,-9.568,105.687,2.05,-8.191,3.785,1.964,-8.222,3.706,-0.468,0.496,-0.459,17.571
'0:01.578',13.068,1247.614,-110.24,-7.713,107.404,1.952,-8.225,3.795,1.886,-8.229,3.773,-0.461,0.502,-0.436,17.575
'0:01.582',20.346,1266.662,-110.346,-6.118,109.413,1.877,-8.308,3.781,1.742,-8.343,3.78,-0.466,0.503,-0.453,17.579
'0:01.586',-17.666,1237.344,-110.324,-4.217,111.337,1.828,-8.39,3.791,1.713,-8.42,3.749,-0.466,0.503,-0.448,17.583
'0:01.590',-69.409,1258.608,-109.894,-2.683,112.969,1.79,-8.522,3.788,1.656,-8.537,3.699,-0.463,0.498,-0.448,17.587
'0:01.594',-72.915,1264.489,-109.484,-1.242,114.817,1.726,-8.665,3.772,1.646,-8.576,3.698,-0.461,0.491,-0.469,17.591
'0:01.598',-58.359,1314.305,-108.446,0.23,116.495,1.652,-8.796,3.757,1.549,-8.718,3.764,-0.443,0.493,-0.503,17.595
'0:01.602',-34.903,1355.299,-107.704,1.871,117.768,1.552,-8.938,3.74,1.434,-8.922,3.692,-0.452,0.48,-0.503,17.599
'0:01.605',-64.314,1347.97,-106.603,2.852,118.902,1.453,-9.091,3.76,1.366,-9.066,3.699,-0.447,0.482,-0.492,17.603
'0:01.609',-78.87,1392.672,-105.275,3.343,119.845,1.328,-9.281,3.768,1.241,-9.247,3.754,-0.429,0.472,-0.53,17.607
'0:01.613',-71.592,1386.067,-103.608,3.634,121.194,1.191,-9.482,3.75,1.164,-9.363,3.713,-0.429,0.472,-0.53,17.611
'0:01.617',-63.751,1432.985,-101.772,3.542,122.344,1.078,-9.697,3.696,0.981,-9.651,3.707,-0.419,0.465,-0.532,17.614
'0:01.621',-54.852,1453.482,-99.696,2.331,123.448,0.967,-9.876,3.607,0.895,-9.788,3.627,-0.417,0.461,-0.57,17.618
'0:01.625',-61.336,1477.645,-97.74,0.414,124.383,0.842,-10.031,3.505,0.752,-9.933,3.496,-0.415,0.465,-0.534,17.622
'0:01.629',-89.093,1530.401,-95.388,-2.177,125.18,0.743,-10.152,3.381,0.618,-10.127,3.414,-0.401,0.459,-0.555,17.626
'0:01.633',-100.97,1556.779,-93.298,-5.321,125.586,0.632,-10.261,3.196,0.58,-10.206,3.306,-0.407,0.449,-0.557,17.63
'0:01.637',-67.523,1553.839,-91.214,-9.798,126.031,0.521,-10.345,3.035,0.475,-10.342,3.166,-0.393,0.449,-0.563,17.634
'0:01.641',-60.807,1602.93,-89.18,-14.796,126.031,0.434,-10.444,2.778,0.409,-10.374,2.979,-0.393,0.449,-0.563,17.638
'0:01.645',-45.953,1578.768,-87.669,-20.945,125.709,0.312,-10.495,2.509,0.268,-10.475,2.654,-0.396,0.434,-0.593,17.642
'0:01.648',-68.085,1637.362,-86.391,-28.029,125.295,0.2,-10.604,2.3,0.038,-10.525,2.376,-0.396,0.436,-0.584,17.646
'0:01.652',-65.372,1605.871,-84.993,-34.959,124.827,0.15,-10.714,2.152,0.097,-10.606,2.24,-0.375,0.431,-0.609,17.65
'0:01.656',-37.88,1645.416,-83.34,-42.641,124.421,0.1,-10.86,2.003,0.07,-10.765,2.023,-0.38,0.426,-0.632,17.654
'0:01.660',-33.017,1620.53,-81.68,-50.308,123.7,0.111,-10.97,1.929,0.109,-10.845,1.935,-0.366,0.424,-0.657,17.657
'0:01.664',-13.895,1617.589,-80.346,-58.342,122.712,0.11,-11.103,1.866,0.062,-11.04,1.875,-0.366,0.424,-0.657,17.661
'0:01.668',-31.694,1639.578,-78.856,-66.285,121.401,0.084,-11.224,1.803,0.071,-11.108,1.835,-0.372,0.404,-0.68,17.665
'0:01.672',-30.073,1646.141,-77.486,-74.104,120.289,0.058,-11.308,1.765,-0.006,-11.273,1.784,-0.361,0.408,-0.657,17.669
'0:01.676',-7.411,1595.601,-76.193,-81.817,118.695,0.032,-11.427,1.787,-0.034,-11.419,1.772,-0.368,0.394,-0.653,17.673
'0:01.680',10.653,1586.822,-74.647,-89.223,117.438,0.043,-11.56,1.784,-0.005,-11.537,1.713,-0.361,0.392,-0.647,17.677
'0:01.684',16.839,1593.427,-73.135,-96.905,115.844,0.078,-11.74,1.818,0.014,-11.721,1.732,-0.351,0.385,-0.68,17.681
'0:01.688',4.433,1548.725,-71.108,-103.958,113.82,0.113,-11.957,1.839,0.004,-11.836,1.789,-0.358,0.372,-0.689,17.685
'0:01.691',5.79,1509.904,-68.721,-111.088,111.819,0.16,-12.089,1.885,0.061,-12.002,1.818,-0.358,0.372,-0.689,17.689
'0:01.695',7.94,1458.596,-66.412,-118.003,109.428,0.22,-12.162,1.921,0.099,-12.09,1.837,-0.358,0.374,-0.67,17.693
'0:01.699',38.939,1410.272,-64.089,-124.32,107.389,0.257,-12.199,1.933,0.185,-12.157,1.926,-0.349,0.351,-0.691,17.696
'0:01.703',61.866,1383.894,-61.617,-130.729,104.875,0.293,-12.175,1.97,0.253,-12.179,1.878,-0.335,0.342,-0.756,17.7
'0:01.707',37.88,1330.413,-59.244,-136.985,102.675,0.367,-12.177,1.947,0.243,-12.179,1.878,-0.342,0.333,-0.741,17.704
'0:01.711',57.829,1308.424,-56.97,-142.98,100.168,0.453,-12.179,1.948,0.397,-12.181,1.91,-0.344,0.337,-0.72,17.708
'0:01.715',56.473,1243.949,-52.351,-154.327,94.243,0.575,-12.206,1.925,0.483,-12.192,1.912,-0.344,0.337,-0.72,17.712
'0:01.719',83.436,1211.008,-50.325,-159.249,92.611,0.697,-12.245,1.926,0.569,-12.222,1.942,-0.347,0.323,-0.722,17.716
'0:01.723',107.157,1128.933,-48.813,-163.45,92.082,0.843,-12.272,1.976,0.791,-12.275,1.896,-0.332,0.317,-0.76,17.72
'0:01.727',102.326,1077.668,-46.787,-167.712,88.724,0.99,-12.287,1.99,0.849,-12.246,1.917,-0.342,0.3,-0.745,17.724
'0:01.730',62.13,1042.512,-45.042,-170.304,86.931,1.161,-12.302,2.053,1.05,-12.326,1.979,-0.34,0.3,-0.743,17.728
'0:01.734',61.072,969.983,-43.199,-172.358,85.053,1.333,-12.28,2.104,1.175,-12.3,1.972,-0.335,0.286,-0.735,17.732
'0:01.738',97.463,943.604,-41.546,-173.386,83.55,1.542,-12.248,2.18,1.377,-12.243,2.034,-0.337,0.277,-0.774,17.736
'0:01.742',70.236,878.405,-39.844,-173.432,81.925,1.726,-12.203,2.232,1.549,-12.254,2.144,-0.337,0.277,-0.774,17.739
'0:01.746',39.766,796.33,-38.22,-172.251,80.73,1.911,-12.134,2.297,1.78,-12.199,2.207,-0.332,0.271,-0.777,17.743
'0:01.750',-11.182,763.389,-36.984,-170.043,79.626,2.107,-12.066,2.324,2.01,-12.084,2.3,-0.342,0.259,-0.76,17.747
'0:01.754',-31.396,691.585,-35.628,-166.44,78.553,2.304,-11.986,2.365,2.144,-12.028,2.312,-0.344,0.257,-0.749,17.751
'0:01.758',-17.931,679.866,-34.576,-161.947,77.74,2.488,-11.93,2.368,2.347,-11.934,2.316,-0.328,0.25,-0.785,17.755
'0:01.762',-16.31,624.893,-33.616,-156.657,76.912,2.624,-11.8,2.397,2.443,-11.927,2.289,-0.335,0.241,-0.762,17.759
'0:01.766',-12.539,539.196,-32.683,-150.202,76.238,2.748,-11.695,2.388,2.596,-11.763,2.342,-0.335,0.241,-0.762,17.763
'0:01.770',-11.182,493.045,-31.822,-143.364,75.617,2.859,-11.601,2.404,2.731,-11.659,2.315,-0.332,0.238,-0.758,17.767
'0:01.773',-29.51,451.284,-31.264,-135.743,75.425,2.946,-11.518,2.431,2.789,-11.62,2.375,-0.323,0.227,-0.762,17.771
'0:01.777',-31.958,435.175,-30.6,-127.157,75.326,3.057,-11.424,2.458,2.942,-11.495,2.467,-0.318,0.22,-0.764,17.775
'0:01.781',-32.223,420.516,-29.837,-118.539,75.004,3.082,-11.352,2.496,2.962,-11.457,2.448,-0.316,0.213,-0.814,17.779
'0:01.785',-30.073,350.927,-29.216,-109.232,74.881,3.095,-11.279,2.534,2.99,-11.32,2.527,-0.311,0.201,-0.82,17.782
'0:01.789',-43.802,360.43,-28.241,-100.002,74.873,3.047,-11.169,2.572,2.99,-11.252,2.528,-0.318,0.197,-0.814,17.786
'0:01.793',-75.099,361.922,-27.133,-91.231,74.682,2.963,-11.071,2.572,2.922,-11.113,2.596,-0.318,0.197,-0.814,17.79
'0:01.797',-92.6,349.436,-26.024,-82.676,74.85,2.817,-10.948,2.548,2.71,-11.022,2.603,-0.323,0.199,-0.777,17.794
'0:01.801',-95.577,345.771,-24.852,-75.331,74.881,2.634,-10.909,2.51,2.624,-10.963,2.592,-0.3,0.201,-0.785,17.798
'0:01.805',-112.02,339.208,-23.828,-69.152,74.843,2.402,-10.845,2.423,2.384,-10.853,2.521,-0.302,0.193,-0.812,17.802
'0:01.809',-109.307,364.819,-22.684,-64.705,74.958,2.158,-10.758,2.288,2.221,-10.842,2.46,-0.309,0.181,-0.789,17.806
'0:01.813',-123.334,382.419,-21.596,-61.501,74.912,1.927,-10.647,2.154,2.002,-10.687,2.252,-0.3,0.183,-0.789,17.81
'0:01.816',-124.161,369.251,-20.593,-59.323,75.234,1.807,-10.43,2.023,1.763,-10.463,2.045,-0.3,0.183,-0.818,17.814
'0:01.820',-173.488,424.181,-19.47,-58.48,75.05,1.711,-10.226,1.916,1.725,-10.347,1.996,-0.298,0.178,-0.818,17.818
'0:01.824',-188.574,504.764,-18.926,-58.649,74.996,1.641,-9.937,1.872,1.573,-10.084,1.898,-0.283,0.172,-0.812,17.821
'0:01.828',-188.574,523.813,-18.559,-59.262,74.95,1.595,-9.708,1.827,1.525,-9.919,1.84,-0.274,0.167,-0.843,17.825
'0:01.832',-189.931,624.169,-18.708,-60.397,75.402,1.548,-9.516,1.782,1.487,-9.669,1.715,-0.276,0.163,-0.818,17.829
'0:01.836',-205.844,654.212,-18.672,-62.543,75.556,1.549,-9.383,1.772,1.478,-9.543,1.706,-0.263,0.169,-0.877,17.833
'0:01.840',-219.871,732.622,-18.778,-64.445,75.908,1.526,-9.263,1.762,1.45,-9.368,1.668,-0.27,0.169,-0.835,17.837
'0:01.844',-234.13,812.438,-18.969,-66.607,76.583,1.539,-9.191,1.775,1.46,-9.242,1.659,-0.27,0.169,-0.835,17.841
'0:01.848',-220.136,883.519,-19.357,-68.707,77.296,1.552,-9.142,1.837,1.44,-9.202,1.737,-0.265,0.16,-0.827,17.845
'0:01.852',-223.345,1012.469,-19.463,-70.578,77.893,1.552,-9.13,1.861,1.44,-9.172,1.776,-0.265,0.149,-0.837,17.849
'0:01.855',-222.551,1052.015,-19.682,-72.234,78.599,1.576,-9.105,1.922,1.468,-9.152,1.806,-0.258,0.144,-0.814,17.853
'0:01.859',-219.044,1142.144,-19.569,-73.69,79.043,1.577,-9.08,1.959,1.478,-9.113,1.856,-0.248,0.149,-0.818,17.857
'0:01.863',-216.894,1252.727,-19.611,-74.994,79.265,1.638,-9.056,2.021,1.486,-9.102,1.943,-0.248,0.139,-0.864,17.861
'0:01.867',-218.779,1286.435,-19.724,-75.806,79.971,1.664,-8.996,2.071,1.534,-9.034,1.984,-0.248,0.128,-0.873,17.864
'0:01.871',-206.108,1362.629,-19.654,-76.481,80.316,1.724,-9.008,2.12,1.621,-9.045,1.946,-0.241,0.128,-0.873,17.868
'0:01.875',-190.725,1406.607,-19.604,-76.849,80.814,1.773,-9.045,2.144,1.63,-9.045,1.976,-0.235,0.131,-0.846,17.872
'0:01.879',-187.516,1504.023,-19.491,-76.757,81.787,1.834,-9.094,2.193,1.687,-9.083,2.084,-0.235,0.131,-0.856,17.876
'0:01.883',-183.744,1509.904,-19.202,-76.435,82.408,1.882,-9.167,2.18,1.745,-9.142,2.104,-0.235,0.13,-0.835,17.88
'0:01.887',-168.625,1537.006,-18.835,-75.822,83.029,1.944,-9.133,2.181,1.841,-9.183,2.066,-0.235,0.124,-0.848,17.884
'0:01.891',-172.397,1583.157,-17.938,-74.58,83.918,1.992,-9.158,2.169,1.909,-9.175,2.048,-0.216,0.121,-0.871,17.888
'0:01.895',-142.489,1569.222,-17.662,-73.859,83.964,2.029,-9.123,2.17,1.928,-9.156,2.048,-0.216,0.121,-0.871,17.892
'0:01.898',-124.426,1597.049,-17.669,-73.138,84.355,2.041,-9.147,2.158,1.986,-9.127,2.059,-0.197,0.116,-0.848,17.896
'0:01.902',-135.476,1598.541,-17.585,-72.326,84.187,2.053,-9.196,2.134,1.937,-9.165,2.058,-0.197,0.108,-0.887,17.9
'0:01.906',-133.061,1572.163,-17.33,-71.13,83.964,2.052,-9.269,2.084,1.986,-9.215,2.029,-0.199,0.101,-0.864,17.904
'0:01.910',-121.184,1566.282,-17.062,-69.949,83.619,2.077,-9.245,2.121,1.976,-9.225,1.99,-0.186,0.105,-0.923,17.907
'0:01.914',-95.313,1571.438,-16.73,-68.615,83.106,2.077,-9.245,2.121,1.986,-9.225,2.019,-0.192,0.11,-0.856,17.911
'0:01.918',-32.752,1566.282,-16.462,-67.251,82.623,2.078,-9.185,2.109,2.015,-9.216,2,-0.186,0.108,-0.862,17.915
'0:01.922',65.637,1532.617,-16.236,-66.193,81.818,2.054,-9.112,2.099,2.034,-9.178,1.991,-0.186,0.108,-0.862,17.919
'0:01.926',240.614,1501.082,-15.897,-65.058,81.12,2.067,-9.041,2.1,1.995,-9.088,2.069,-0.178,0.094,-0.889,17.923
'0:01.930',318.525,1466.65,-15.777,-63.801,80.086,2.056,-8.896,2.102,2.015,-9.002,2.041,-0.174,0.092,-0.862,17.927
'0:01.934',417.477,1463.752,-15.459,-62.513,78.714,2.07,-8.777,2.093,2.053,-8.847,2.024,-0.16,0.1,-0.869,17.931
'0:01.938',393.459,1469.591,-15.445,-61.347,77.571,2.107,-8.669,2.083,2.063,-8.73,2.054,-0.16,0.085,-0.881,17.935
'0:01.941',322.297,1433.709,-15.593,-59.937,76.276,2.133,-8.598,2.085,2.063,-8.643,2.035,-0.153,0.073,-0.915,17.939
'0:01.945',226.587,1388.283,-15.572,-58.311,74.812,2.183,-8.479,2.088,2.14,-8.557,2.067,-0.153,0.073,-0.915,17.943
'0:01.949',184.274,1410.272,-15.897,-56.517,73.455,2.221,-8.432,2.089,2.15,-8.489,2.048,-0.146,0.087,-0.875,17.946
'0:01.953',203.958,1358.24,-16.003,-54.401,72.275,2.258,-8.348,2.091,2.179,-8.392,2.069,-0.153,0.082,-0.898,17.95
'0:01.957',218.779,1381.678,-16.61,-52.025,70.742,2.308,-8.301,2.117,2.188,-8.372,2.108,-0.127,0.082,-0.919,17.954
'0:01.961',184.538,1361.18,-16.78,-49.234,69.324,2.345,-8.313,2.141,2.294,-8.317,2.071,-0.131,0.073,-0.91,17.958
'0:01.965',148.676,1358.24,-17.175,-46.076,67.86,2.38,-8.361,2.189,2.313,-8.385,2.081,-0.115,0.077,-0.904,17.962
'0:01.969',110.928,1330.413,-17.521,-42.794,66.327,2.354,-8.504,2.21,2.341,-8.423,2.139,-0.134,0.077,-0.894,17.966
'0:01.973',62.957,1342.132,-17.712,-39.145,64.74,2.365,-8.636,2.245,2.351,-8.558,2.187,-0.134,0.077,-0.894,17.97
'0:01.977',56.738,1344.305,-17.747,-35.266,63.031,2.327,-8.803,2.277,2.389,-8.616,2.236,-0.118,0.073,-0.898,17.974
'0:01.980',65.637,1334.078,-17.563,-31.877,61.321,2.301,-8.922,2.311,2.312,-8.857,2.243,-0.117,0.069,-0.906,17.978
'0:01.984',77.249,1317.97,-17.429,-28.458,59.627,2.25,-9.04,2.357,2.234,-9.01,2.289,-0.099,0.066,-0.889,17.982
'0:01.988',76.422,1315.029,-16.886,-25.284,57.757,2.188,-9.134,2.415,2.176,-9.106,2.326,-0.101,0.059,-0.927,17.986
'0:01.992',64.843,1323.083,-16.342,-22.57,55.802,2.114,-9.227,2.461,2.089,-9.24,2.372,-0.113,0.059,-0.898,17.989
'0:01.996',58.359,1339.191,-15.614,-20.178,54.177,2.039,-9.345,2.481,2.041,-9.287,2.401,-0.113,0.059,-0.898,17.993
'0:02.000',49.195,1317.202,-15.056,-18.415,52.407,1.952,-9.463,2.502,1.973,-9.421,2.399,-0.101,0.059,-0.912,17.997
'0:02.004',44.067,1326.748,-13.919,-17.066,50.23,1.865,-9.533,2.512,1.906,-9.488,2.416,-0.096,0.061,-0.892,18.001
'0:02.008',44.332,1343.581,-12.592,-15.9,48.283,1.828,-9.568,2.499,1.819,-9.573,2.473,-0.087,0.062,-0.898,18.005
'0:02.012',48.93,1310.64,-11.158,-15.256,46.267,1.791,-9.58,2.486,1.771,-9.583,2.423,-0.087,0.059,-0.933,18.009
'0:02.016',26.003,1322.359,-9.908,-14.965,44.335,1.718,-9.543,2.449,1.713,-9.563,2.393,-0.085,0.048,-0.938,18.013
'0:02.020',32.488,1351.635,-8.347,-14.996,41.913,1.669,-9.519,2.412,1.656,-9.514,2.363,-0.075,0.059,-0.908,18.017
'0:02.023',42.446,1315.029,-6.914,-15.64,39.652,1.633,-9.459,2.341,1.647,-9.457,2.295,-0.075,0.059,-0.908,18.021
'0:02.027',58.359,1375.072,-5.967,-16.621,37.391,1.597,-9.387,2.269,1.589,-9.408,2.255,-0.075,0.061,-0.919,18.025
'0:02.031',48.93,1342.132,-4.668,-17.771,34.777,1.574,-9.352,2.196,1.552,-9.361,2.138,-0.064,0.057,-0.931,18.029
'0:02.035',58.921,1379.504,-3.828,-19.243,32.125,1.55,-9.329,2.112,1.524,-9.382,2.049,-0.083,0.062,-0.912,18.032
'0:02.039',94.75,1413.169,-2.733,-20.884,29.994,1.538,-9.294,2.052,1.486,-9.353,1.971,-0.068,0.055,-0.923,18.036
'0:02.043',118.206,1416.11,-2.168,-22.448,27.618,1.538,-9.319,2.003,1.447,-9.363,1.951,-0.069,0.054,-0.915,18.04
'0:02.047',105.8,1410.272,-1.78,-23.735,25.157,1.55,-9.344,1.942,1.515,-9.306,1.952,-0.069,0.054,-0.892,18.044
'0:02.051',55.117,1432.985,-0.996,-24.901,22.842,1.574,-9.393,1.918,1.554,-9.356,1.884,-0.082,0.061,-0.892,18.048
'0:02.055',18.99,1449.818,-0.565,-25.729,20.397,1.622,-9.419,1.918,1.544,-9.366,1.864,-0.057,0.054,-0.927,18.052
'0:02.059',16.575,1487.915,-0.169,-26.495,18.143,1.67,-9.491,1.941,1.602,-9.435,1.865,-0.071,0.052,-0.921,18.056
'0:02.063',17.402,1506.963,0.205,-26.986,14.073,1.681,-9.588,1.939,1.65,-9.514,1.855,-0.054,0.043,-0.94,18.06
'0:02.066',35.73,1523.796,0.713,-27.093,11.927,1.742,-9.696,2.011,1.669,-9.649,1.894,-0.064,0.039,-0.91,18.064
'0:02.070',51.61,1552.39,0.996,-26.618,10.011,1.777,-9.828,2.033,1.707,-9.765,1.961,-0.041,0.055,-0.963,18.068
'0:02.074',65.372,1517.958,1.405,-25.897,8.071,1.849,-9.925,2.105,1.802,-9.843,2.051,-0.041,0.055,-0.963,18.071
'0:02.078',64.843,1519.406,1.54,-25.146,5.833,1.909,-10.045,2.189,1.916,-9.988,2.169,-0.064,0.043,-0.946,18.075
'0:02.082',82.344,1521.622,2.027,-23.904,4.453,1.944,-10.152,2.26,1.906,-10.074,2.246,-0.059,0.05,-0.915,18.079
'0:02.086',68.35,1520.131,2.5,-22.616,2.384,1.98,-10.224,2.332,1.925,-10.189,2.323,-0.061,0.045,-0.931,18.083
'0:02.090',68.879,1512.801,3.129,-21.006,1.15,2.016,-10.296,2.379,1.972,-10.218,2.372,-0.059,0.045,-0.898,18.087
'0:02.094',97.463,1511.352,3.891,-19.32,-0.728,2.028,-10.308,2.403,1.991,-10.266,2.411,-0.041,0.054,-0.896,18.091
'0:02.098',125.22,1521.622,4.569,-17.372,-2.292,2.029,-10.284,2.416,1.962,-10.226,2.45,-0.041,0.052,-0.923,18.095
'0:02.102',142.489,1454.931,5.374,-15.594,-3.94,2.017,-10.259,2.416,1.895,-10.225,2.459,-0.062,0.052,-0.923,18.099
'0:02.105',163.497,1457.147,5.89,-13.999,-5.634,1.993,-10.163,2.406,1.895,-10.128,2.45,-0.047,0.054,-0.94,18.103
'0:02.109',166.21,1454.207,6.589,-12.374,-7.251,1.969,-10.139,2.357,1.924,-10.08,2.421,-0.062,0.041,-0.938,18.107
'0:02.113',179.146,1391.223,7.09,-10.748,-9.275,1.908,-10.055,2.309,1.867,-10.053,2.294,-0.059,0.036,-0.938,18.111
'0:02.117',174.547,1405.115,7.662,-9.399,-11.076,1.91,-9.971,2.263,1.848,-10.033,2.303,-0.061,0.048,-0.919,18.114
'0:02.121',205.579,1346.521,8.065,-8.218,-12.893,1.874,-9.863,2.216,1.859,-9.948,2.187,-0.075,0.054,-0.902,18.118
'0:02.125',239.787,1334.078,8.552,-6.747,-14.985,1.851,-9.756,2.169,1.84,-9.705,2.15,-0.075,0.054,-0.902,18.122
'0:02.129',274.028,1347.97,8.467,-5.903,-16.779,1.803,-9.635,2.146,1.802,-9.695,2.169,-0.059,0.052,-0.935,18.126
'0:02.133',274.326,1315.029,8.842,-5.075,-18.642,1.78,-9.575,2.111,1.764,-9.618,2.1,-0.075,0.046,-0.923,18.13
'0:02.137',258.148,1280.597,8.962,-4.278,-20.65,1.744,-9.49,2.099,1.736,-9.58,2.032,-0.066,0.052,-0.894,18.134
'0:02.141',257.321,1269.602,8.87,-3.711,-22.145,1.707,-9.454,2.076,1.668,-9.482,2.002,-0.066,0.052,-0.896,18.138
'0:02.145',240.614,1271.776,8.997,-3.404,-24.214,1.659,-9.453,2.038,1.659,-9.473,1.963,-0.069,0.05,-0.894,18.142
'0:02.148',194.232,1304.035,8.99,-3.343,-25.74,1.622,-9.428,2.038,1.612,-9.425,1.914,-0.064,0.057,-0.933,18.146
'0:02.152',148.941,1293.04,8.559,-3.481,-27.219,1.621,-9.465,1.989,1.573,-9.492,1.913,-0.064,0.057,-0.933,18.15
'0:02.156',131.44,1281.321,8.799,-4.201,-28.798,1.621,-9.55,1.963,1.582,-9.511,1.952,-0.069,0.054,-0.906,18.154
'0:02.160',126.047,1273.992,8.326,-4.83,-30.239,1.62,-9.622,1.974,1.543,-9.539,1.98,-0.064,0.052,-0.933,18.157
'0:02.164',107.421,1269.602,8.178,-5.321,-31.274,1.669,-9.659,1.986,1.572,-9.607,1.99,-0.089,0.05,-0.894,18.161
'0:02.168',110.663,1300.37,8.001,-5.489,-32.224,1.692,-9.707,1.986,1.62,-9.657,1.961,-0.076,0.061,-0.902,18.165
'0:02.172',129.819,1310.64,7.924,-5.627,-33.359,1.729,-9.732,2.01,1.64,-9.716,1.941,-0.085,0.057,-0.91,18.169
'0:02.176',128.727,1343.581,7.86,-5.612,-33.895,1.766,-9.744,2.035,1.707,-9.745,1.972,-0.085,0.057,-0.91,18.173
'0:02.180',140.868,1353.851,8.001,-5.428,-34.478,1.79,-9.769,2.035,1.745,-9.795,1.952,-0.094,0.055,-0.892,18.177
'0:02.184',93.129,1347.97,7.79,-5.014,-35.206,1.826,-9.817,2.034,1.726,-9.775,1.982,-0.092,0.061,-0.902,18.181
'0:02.188',97.463,1338.467,7.987,-4.37,-35.666,1.838,-9.83,2.01,1.784,-9.864,1.952,-0.089,0.061,-0.91,18.185
'0:02.191',97.728,1330.413,8.107,-3.772,-36.256,1.874,-9.88,1.985,1.793,-9.874,1.913,-0.083,0.048,-0.95,18.189
'0:02.195',124.691,1342.856,8.107,-3.113,-37.053,1.911,-9.905,1.949,1.804,-9.904,1.874,-0.099,0.052,-0.894,18.193
'0:02.199',136.534,1389.007,8.404,-2.453,-37.544,1.935,-9.907,1.913,1.88,-9.915,1.905,-0.106,0.062,-0.91,18.196
'0:02.203',139.247,1350.91,8.34,-1.656,-38.042,1.96,-9.92,1.877,1.89,-9.886,1.876,-0.106,0.062,-0.91,18.2
'0:02.207',176.731,1397.786,8.143,-1.073,-38.893,1.984,-9.897,1.817,1.843,-9.906,1.816,-0.096,0.054,-0.881,18.204
'0:02.211',285.111,1353.851,8.354,-0.399,-39.43,2.034,-9.887,1.77,1.891,-9.899,1.739,-0.104,0.05,-0.925,18.208
'0:02.215',201.51,1395.612,7.952,0.23,-39.982,2.058,-9.853,1.71,1.96,-9.872,1.652,-0.113,0.054,-0.892,18.212
'0:02.219',83.965,1356.791,7.542,0.966,-40.602,2.083,-9.854,1.674,2.008,-9.865,1.546,-0.122,0.061,-0.908,18.216
'0:02.223',-32.752,1369.234,7.288,1.702,-41.285,2.12,-9.843,1.651,2.027,-9.864,1.634,-0.12,0.061,-0.875,18.22
'0:02.227',36.789,1394.121,6.667,2.607,-41.89,2.144,-9.845,1.627,2.056,-9.876,1.567,-0.12,0.061,-0.875,18.224
'0:02.230',29.51,1364.845,6.172,3.879,-42.664,2.144,-9.894,1.589,2.056,-9.885,1.576,-0.104,0.066,-0.879,18.228
'0:02.234',-81.021,1332.586,5.374,4.907,-43.446,2.168,-9.93,1.589,2.124,-9.917,1.509,-0.125,0.061,-0.919,18.232
'0:02.238',-165.118,1323.083,4.011,7.743,-44.558,2.205,-9.967,1.589,2.114,-9.936,1.528,-0.136,0.062,-0.877,18.236
'0:02.242',-184.009,1313.538,3.058,9.123,-45.041,2.24,-9.991,1.601,2.172,-9.975,1.528,-0.141,0.055,-0.902,18.239
'0:02.246',-205.579,1305.484,2.154,10.81,-45.83,2.29,-9.993,1.602,2.19,-9.984,1.607,-0.12,0.061,-0.894,18.243
'0:02.250',-201.808,1294.489,1.37,12.849,-46.551,2.314,-10.029,1.601,2.248,-10.014,1.598,-0.138,0.054,-0.91,18.247
'0:02.254',-184.803,1319.418,0.516,14.934,-47.225,2.375,-10.03,1.639,2.268,-10.014,1.608,-0.138,0.054,-0.91,18.251
'0:02.258',-140.868,1280.597,-0.487,17.142,-47.884,2.412,-10.018,1.688,2.306,-10.024,1.648,-0.143,0.061,-0.912,18.255
'0:02.262',-107.719,1253.494,-1.137,19.78,-48.329,2.473,-10.007,1.701,2.402,-9.997,1.64,-0.127,0.066,-0.9,18.259
'0:02.266',-121.184,1257.159,-1.815,22.908,-48.988,2.535,-9.948,1.739,2.412,-10.007,1.64,-0.136,0.055,-0.931,18.263
'0:02.270',-145.169,1249.83,-2.578,26.051,-49.647,2.596,-9.912,1.801,2.459,-9.976,1.738,-0.155,0.073,-0.875,18.267
'0:02.273',-132.498,1212.457,-3.22,29.685,-50.23,2.646,-9.888,1.851,2.574,-9.88,1.8,-0.152,0.073,-0.894,18.271
'0:02.277',-96.934,1168.479,-3.51,33.656,-51.081,2.707,-9.828,1.913,2.603,-9.852,1.781,-0.152,0.073,-0.933,18.275
'0:02.281',-80.756,1172.144,-3.969,38.532,-51.679,2.769,-9.781,1.951,2.66,-9.773,1.89,-0.15,0.066,-0.933,18.279
'0:02.285',-102.591,1188.295,-4.393,43.27,-52.614,2.794,-9.745,1.977,2.727,-9.754,1.93,-0.172,0.068,-0.887,18.282
'0:02.289',-105.833,1175.084,-4.689,48.728,-53.296,2.843,-9.733,2.038,2.765,-9.764,1.95,-0.171,0.075,-0.883,18.286
'0:02.293',-113.641,1121.604,-4.463,53.911,-54.154,2.88,-9.733,2.062,2.813,-9.754,2,-0.167,0.073,-0.85,18.29
'0:02.297',-99.878,1145.808,-4.407,60.381,-54.852,2.929,-9.71,2.076,2.832,-9.745,1.991,-0.165,0.075,-0.91,18.294
'0:02.301',-68.35,1169.246,-4.082,66.239,-55.565,2.954,-9.674,2.077,2.87,-9.716,2.001,-0.181,0.078,-0.852,18.298
'0:02.305',-71.03,1125.993,-3.686,72.648,-56.446,2.942,-9.686,2.1,2.899,-9.716,2.021,-0.181,0.078,-0.852,18.302
'0:02.309',-86.149,1178.749,-3.418,78.812,-57.105,2.917,-9.71,2.088,2.85,-9.743,2.079,-0.186,0.075,-0.902,18.306
'0:02.313',-93.427,1189.019,-2.712,84.7,-58.033,2.843,-9.769,2.049,2.793,-9.772,2.029,-0.181,0.082,-0.898,18.31
'0:02.316',-83.965,1180.241,-2.182,90.71,-58.324,2.768,-9.876,1.998,2.746,-9.792,1.969,-0.199,0.078,-0.883,18.314
'0:02.320',-86.678,1221.235,-1.088,93.838,-58.968,2.706,-9.972,1.935,2.649,-9.937,1.937,-0.176,0.089,-0.892,18.318
'0:02.324',-86.413,1221.96,-0.233,98.821,-59.635,2.632,-10.08,1.859,2.582,-9.965,1.906,-0.197,0.08,-0.896,18.321
'0:02.328',-83.701,1230.781,1.045,102.854,-60.363,2.594,-10.128,1.798,2.525,-10.082,1.846,-0.204,0.098,-0.86,18.325
'0:02.332',-77.249,1269.602,2.147,105.951,-61.222,2.544,-10.248,1.746,2.496,-10.14,1.855,-0.204,0.098,-0.86,18.329
'0:02.336',-54.852,1294.489,3.757,109.11,-62.004,2.494,-10.344,1.671,2.429,-10.247,1.775,-0.207,0.1,-0.877,18.333
'0:02.340',-41.122,1348.737,4.654,111.916,-62.41,2.456,-10.477,1.632,2.391,-10.384,1.695,-0.22,0.096,-0.866,18.337
'0:02.344',-37.616,1369.234,5.96,114.538,-63.238,2.443,-10.561,1.606,2.381,-10.489,1.752,-0.221,0.103,-0.856,18.341
'0:02.348',-32.223,1421.266,7.634,116.807,-63.882,2.392,-10.705,1.554,2.343,-10.616,1.673,-0.213,0.108,-0.881,18.345
'0:02.352',-42.446,1448.369,9.145,118.417,-64.433,2.317,-10.848,1.515,2.305,-10.704,1.623,-0.216,0.11,-0.906,18.349
'0:02.355',-23.059,1479.861,10.395,119.659,-65.323,2.266,-10.98,1.463,2.238,-10.898,1.542,-0.216,0.11,-0.906,18.353
'0:02.359',3.904,1483.525,11.963,120.686,-65.744,2.204,-11.123,1.435,2.19,-10.994,1.579,-0.228,0.112,-0.864,18.357
'0:02.363',-6.881,1543.569,13.736,121.345,-66.695,2.141,-11.255,1.396,2.142,-11.16,1.499,-0.235,0.119,-0.864,18.361
'0:02.367',2.547,1572.887,15.515,121.775,-67.591,2.091,-11.374,1.381,2.056,-11.305,1.438,-0.23,0.119,-0.848,18.364
'0:02.371',-7.146,1615.373,17.274,121.867,-68.542,2.029,-11.482,1.341,2.065,-11.363,1.437,-0.235,0.126,-0.869,18.368
'0:02.375',8.502,1632.249,19.039,121.867,-69.63,2.027,-11.578,1.34,1.999,-11.56,1.288,-0.242,0.137,-0.829,18.372
'0:02.379',17.402,1638.087,20.96,121.928,-70.696,1.977,-11.685,1.349,1.998,-11.627,1.327,-0.235,0.142,-0.9,18.376
'0:02.383',24.118,1661.525,22.818,121.959,-72.022,1.989,-11.709,1.361,1.903,-11.674,1.325,-0.235,0.142,-0.9,18.38
'0:02.387',20.082,1649.081,24.767,122.219,-73.348,1.94,-11.768,1.372,1.931,-11.694,1.325,-0.256,0.139,-0.871,18.384
'0:02.391',-3.904,1663.74,26.907,122.173,-74.812,1.903,-11.767,1.383,1.922,-11.771,1.344,-0.256,0.154,-0.837,18.388
'0:02.395',9.826,1668.13,28.87,122.327,-76.583,1.903,-11.73,1.396,1.873,-11.73,1.392,-0.262,0.162,-0.839,18.392
'0:02.398',-0.132,1673.243,31.349,122.603,-78.43,1.88,-11.681,1.408,1.883,-11.682,1.393,-0.26,0.169,-0.866,18.396
'0:02.402',-9.032,1690.843,33.545,122.725,-80.362,1.892,-11.694,1.408,1.902,-11.672,1.432,-0.272,0.17,-0.858,18.4
'0:02.406',-10.653,1699.622,35.459,122.848,-82.562,1.854,-11.766,1.358,1.883,-11.692,1.383,-0.272,0.17,-0.858,18.404
'0:02.410',-18.725,1706.951,39.279,123.753,-86.8,1.877,-11.839,1.321,1.825,-11.818,1.342,-0.27,0.183,-0.839,18.407
'0:02.414',-22.497,1681.298,41.215,124.213,-89.299,1.925,-12.034,1.27,1.864,-12.004,1.253,-0.269,0.176,-0.871,18.411
'0:02.418',-2.283,1684.962,43.1,125.332,-91.499,1.972,-12.191,1.255,1.912,-12.112,1.273,-0.284,0.188,-0.816,18.415
'0:02.422',-11.182,1643.968,45.268,126.605,-93.737,2.008,-12.312,1.266,1.998,-12.258,1.322,-0.298,0.197,-0.825,18.419
'0:02.426',5.26,1635.913,47.005,128.291,-96.022,2.055,-12.385,1.289,2.027,-12.288,1.302,-0.265,0.211,-0.791,18.423
'0:02.430',-1.489,1625.643,48.82,131.082,-98.628,2.104,-12.445,1.325,2.066,-12.395,1.302,-0.293,0.208,-0.835,18.427
'0:02.434',9.826,1647.632,50.755,134.056,-100.789,2.14,-12.506,1.337,2.084,-12.414,1.341,-0.293,0.208,-0.835,18.431
'0:02.438',28.187,1579.492,52.606,137.46,-102.79,2.164,-12.591,1.311,2.123,-12.474,1.302,-0.297,0.225,-0.827,18.435
'0:02.441',34.903,1605.146,54.52,141.34,-104.89,2.162,-12.675,1.31,2.132,-12.589,1.38,-0.311,0.232,-0.808,18.439
'0:02.445',37.616,1567.049,56.236,145.342,-106.745,2.186,-12.784,1.296,2.151,-12.696,1.369,-0.309,0.238,-0.779,18.443
'0:02.449',48.665,1548.725,58.121,149.65,-108.569,2.221,-12.918,1.258,2.17,-12.813,1.359,-0.311,0.252,-0.774,18.446
'0:02.453',58.094,1518.682,60.282,154.066,-110.746,2.183,-13.049,1.243,2.17,-12.891,1.339,-0.325,0.257,-0.791,18.45
'0:02.457',59.186,1473.255,62.203,158.451,-112.686,2.169,-13.17,1.204,2.17,-13.085,1.357,-0.325,0.257,-0.791,18.454
'0:02.461',51.08,1429.32,64.173,162.744,-114.418,2.144,-13.243,1.154,2.132,-13.203,1.258,-0.325,0.27,-0.76,18.458
'0:02.465',55.117,1376.564,66.299,167.022,-115.897,2.095,-13.302,1.116,2.133,-13.213,1.219,-0.325,0.275,-0.777,18.462
'0:02.469',65.108,1372.899,68.361,171.316,-117.699,2.046,-13.338,1.066,2.056,-13.32,1.148,-0.309,0.291,-0.779,18.466
'0:02.473',72.915,1318.694,70.438,174.965,-119.078,1.984,-13.301,1.054,2.056,-13.302,1.08,-0.33,0.289,-0.779,18.47
'0:02.477',73.743,1315.029,72.436,178.292,-120.696,1.863,-13.264,0.968,1.903,-13.281,1.048,-0.326,0.307,-0.743,18.474
'0:02.480',97.728,1254.219,74.47,180.914,-121.631,1.753,-13.19,0.908,1.817,-13.203,0.999,-0.337,0.326,-0.749,18.478
'0:02.484',102.029,1224.9,76.483,183.275,-123.08,1.619,-13.104,0.847,1.683,-13.124,0.919,-0.337,0.326,-0.749,18.482
'0:02.488',97.993,1208.068,78.679,184.855,-124.061,1.498,-13.006,0.798,1.539,-13.016,0.869,-0.33,0.337,-0.756,18.486
'0:02.492',106.892,1204.403,80.48,185.943,-124.689,1.352,-12.895,0.774,1.463,-12.957,0.819,-0.344,0.349,-0.722,18.489
'0:02.496',105.535,1180.965,82.429,186.066,-125.939,1.207,-12.748,0.775,1.222,-12.808,0.806,-0.337,0.362,-0.728,18.493
'0:02.500',112.02,1172.144,84.166,185.775,-126.506,1.062,-12.552,0.776,1.088,-12.699,0.805,-0.351,0.365,-0.71,18.497
'0:02.504',101.764,1120.155,86.066,184.441,-127.165,0.905,-12.392,0.777,0.953,-12.474,0.785,-0.339,0.372,-0.701,18.501
'0:02.508',83.965,1121.604,88.171,182.493,-127.74,0.784,-12.209,0.803,0.771,-12.266,0.822,-0.339,0.394,-0.685,18.505
'0:02.512',61.336,1129.658,89.802,179.58,-127.878,0.713,-12.026,0.853,0.703,-12.167,0.832,-0.337,0.394,-0.685,18.509
'0:02.516',42.446,1169.246,91.864,176.115,-128.545,0.641,-11.866,0.928,0.549,-11.961,0.85,-0.332,0.408,-0.731,18.513
'0:02.520',15.218,1202.911,93.757,171.837,-128.989,0.544,-11.706,1.014,0.53,-11.843,0.88,-0.349,0.411,-0.678,18.517
'0:02.523',-10.653,1247.614,95.635,166.93,-129.664,0.424,-11.51,1.089,0.433,-11.635,1.007,-0.342,0.427,-0.639,18.521
'0:02.527',-43.008,1279.872,97.627,161.349,-129.986,0.267,-11.289,1.163,0.327,-11.467,1.065,-0.342,0.436,-0.624,18.525
'0:02.531',-81.285,1292.316,99.541,154.894,-130.109,0.098,-11.019,1.214,0.115,-11.171,1.152,-0.342,0.449,-0.624,18.529
'0:02.535',-101.235,1331.862,101.793,147.687,-130.201,-0.094,-10.773,1.264,-0.087,-10.855,1.229,-0.342,0.449,-0.624,18.532
'0:02.539',-130.348,1422.715,102.613,139.561,-130.361,-0.263,-10.505,1.279,-0.203,-10.688,1.268,-0.337,0.465,-0.611,18.536
'0:02.543',-155.954,1491.579,105.995,130.223,-130.262,-0.432,-10.284,1.317,-0.396,-10.411,1.345,-0.346,0.459,-0.624,18.54
'0:02.547',-186.424,1547.233,104.583,120.379,-130.101,-0.528,-10.066,1.295,-0.472,-10.265,1.315,-0.335,0.484,-0.624,18.544
'0:02.551',-223.345,1595.601,106.949,109.892,-129.748,-0.587,-9.92,1.321,-0.577,-9.982,1.286,-0.342,0.484,-0.609,18.548
'0:02.555',-259.769,1657.135,106.793,98.745,-129.219,-0.622,-9.738,1.372,-0.624,-9.945,1.13,-0.326,0.491,-0.595,18.552
'0:02.559',-289.941,1751.653,107.196,86.049,-128.974,-0.608,-9.581,1.423,-0.644,-9.729,1.258,-0.333,0.503,-0.595,18.556
'0:02.563',-301.289,1823.458,110.226,75.929,-128.453,-0.594,-9.461,1.426,-0.635,-9.524,1.308,-0.333,0.503,-0.595,18.56
'0:02.566',-316.11,1882.777,107.648,64.491,-127.755,-0.532,-9.305,1.502,-0.635,-9.456,1.299,-0.349,0.498,-0.584,18.564
'0:02.570',-335.497,1941.371,107.817,52.884,-126.828,-0.408,-9.186,1.566,-0.549,-9.271,1.4,-0.351,0.518,-0.563,18.568
'0:02.574',-339.004,2003.673,109.216,41.828,-125.816,-0.297,-9.08,1.594,-0.482,-9.194,1.47,-0.365,0.516,-0.532,18.571
'0:02.578',-353.858,2097.424,106.038,21.129,-123.494,-0.1,-9.011,1.659,-0.271,-9.051,1.514,-0.363,0.537,-0.507,18.575
'0:02.582',-349.26,2114.3,106.08,12.358,-122.574,0.084,-8.954,1.723,-0.108,-9.003,1.585,-0.354,0.523,-0.524,18.579
'0:02.586',-347.639,2156.786,105.882,4.569,-121.217,0.293,-8.922,1.775,-0.002,-8.948,1.559,-0.354,0.523,-0.524,18.583
'0:02.590',-350.351,2197.056,105.783,-2.407,-119.929,0.514,-8.914,1.839,0.2,-8.978,1.669,-0.373,0.53,-0.509,18.587
'0:02.594',-337.68,2227.824,105.67,-7.958,-118.297,0.722,-8.869,1.915,0.372,-8.94,1.75,-0.372,0.537,-0.476,18.591
'0:02.598',-321.503,2246.872,105.091,-12.45,-116.878,0.942,-8.884,2.015,0.631,-8.894,1.853,-0.375,0.535,-0.476,18.595
'0:02.602',-317.434,2252.753,102.493,-15.747,-115.215,1.163,-8.827,2.116,0.785,-8.877,1.894,-0.373,0.539,-0.528,18.599
'0:02.605',-313.662,2250.537,101.574,-18.016,-113.713,1.384,-8.807,2.204,1.121,-8.814,1.959,-0.389,0.53,-0.486,18.603
'0:02.609',-299.37,2240.31,101.589,-19.473,-112.195,1.593,-8.75,2.256,1.389,-8.785,2.159,-0.394,0.551,-0.43,18.607
'0:02.613',-257.057,2195.607,101.207,-19.872,-110.769,1.789,-8.718,2.295,1.542,-8.738,2.231,-0.394,0.551,-0.43,18.611
'0:02.617',-165.945,2171.445,100.176,-19.074,-109.229,1.948,-8.649,2.347,1.716,-8.673,2.234,-0.398,0.546,-0.461,18.614
'0:02.621',-38.145,2138.462,98.947,-17.188,-107.404,2.084,-8.568,2.351,1.85,-8.636,2.237,-0.407,0.53,-0.459,18.618
'0:02.625',31.661,2103.305,98.326,-14.612,-105.756,2.22,-8.474,2.354,2.013,-8.59,2.269,-0.407,0.548,-0.413,18.622
'0:02.629',102.856,2046.884,96.864,-11.607,-104.024,2.342,-8.453,2.356,2.177,-8.475,2.302,-0.41,0.555,-0.415,18.626
'0:02.633',73.478,2001.457,95.946,-7.85,-102.598,2.454,-8.407,2.383,2.244,-8.447,2.323,-0.407,0.557,-0.39,18.63
'0:02.637',10.123,1913.544,95.127,-3.711,-100.966,2.564,-8.374,2.397,2.359,-8.418,2.403,-0.407,0.557,-0.39,18.634
'0:02.641',-55.414,1894.496,94.251,0.475,-99.41,2.626,-8.29,2.424,2.465,-8.391,2.376,-0.428,0.548,-0.415,18.638
'0:02.645',-74.537,1827.847,93.276,4.431,-97.823,2.676,-8.231,2.426,2.484,-8.315,2.318,-0.426,0.56,-0.392,18.642
'0:02.648',-78.043,1758.983,92.274,8.356,-96.183,2.689,-8.123,2.44,2.484,-8.246,2.368,-0.438,0.557,-0.363,18.646
'0:02.652',-47.044,1717.221,90.911,12.098,-94.389,2.678,-8.039,2.429,2.523,-8.092,2.35,-0.428,0.558,-0.392,18.65
'0:02.656',-44.629,1677.675,89.668,15.042,-92.856,2.63,-7.918,2.418,2.542,-7.994,2.4,-0.429,0.558,-0.342,18.654
'0:02.660',-71.294,1631.482,88.093,17.848,-91.56,2.57,-7.856,2.419,2.494,-7.935,2.4,-0.433,0.567,-0.392,18.657
'0:02.664',-116.585,1635.146,86.574,19.964,-89.475,2.522,-7.747,2.432,2.446,-7.828,2.361,-0.433,0.567,-0.392,18.661
'0:02.668',-136.005,1575.103,84.929,21.696,-87.889,2.437,-7.709,2.444,2.37,-7.818,2.34,-0.445,0.565,-0.34,18.665
'0:02.672',-142.754,1581.666,82.874,22.54,-86.31,2.388,-7.671,2.468,2.321,-7.71,2.36,-0.449,0.571,-0.304,18.669
'0:02.676',-128.991,1565.558,81.306,23.306,-84.585,2.29,-7.608,2.516,2.206,-7.59,2.407,-0.449,0.573,-0.323,18.673
'0:02.680',-124.161,1515.742,79.251,23.046,-83.044,2.218,-7.545,2.564,2.157,-7.55,2.456,-0.459,0.576,-0.289,18.677
'0:02.684',-117.942,1536.282,77.394,22.202,-81.68,2.145,-7.459,2.602,2.08,-7.499,2.494,-0.452,0.585,-0.271,18.681
'0:02.688',-118.504,1519.406,75.699,20.776,-79.971,2.122,-7.385,2.663,2.032,-7.488,2.532,-0.452,0.585,-0.271,18.685
'0:02.691',-108.778,1498.909,73.954,19.396,-78.461,2.11,-7.335,2.748,1.973,-7.417,2.629,-0.461,0.576,-0.312,18.689
'0:02.695',-112.284,1537.731,72.005,17.495,-77.188,2.11,-7.273,2.81,2.022,-7.35,2.611,-0.466,0.581,-0.26,18.693
'0:02.699',-107.984,1511.352,70.113,15.287,-75.77,2.135,-7.225,2.884,2.03,-7.328,2.748,-0.457,0.585,-0.26,18.696
'0:02.703',-86.413,1491.579,68.34,13.508,-74.659,2.148,-7.175,2.97,2.039,-7.24,2.827,-0.475,0.59,-0.275,18.7
'0:02.707',-86.413,1523.796,66.695,11.638,-73.524,2.198,-7.139,3.031,2.068,-7.201,2.847,-0.457,0.594,-0.289,18.704
'0:02.711',-90.979,1495.244,65.056,9.782,-72.229,2.222,-7.079,3.094,2.115,-7.122,2.966,-0.471,0.589,-0.275,18.708
'0:02.715',-78.308,1541.395,63.326,8.341,-71.01,2.247,-7.006,3.144,2.086,-7.082,2.976,-0.471,0.589,-0.275,18.712
'0:02.719',-76.158,1531.85,61.786,6.977,-69.968,2.285,-6.957,3.23,2.153,-6.994,3.075,-0.45,0.587,-0.256,18.716
'0:02.723',-55.679,1510.628,60.381,5.781,-68.527,2.31,-6.885,3.292,2.162,-6.925,3.164,-0.47,0.587,-0.285,18.72
'0:02.727',-54.587,1504.023,58.736,5.091,-67.201,2.347,-6.799,3.391,2.229,-6.867,3.204,-0.485,0.599,-0.214,18.724
'0:02.730',-57.3,1553.114,57.182,4.462,-66.089,2.397,-6.751,3.465,2.247,-6.806,3.342,-0.473,0.596,-0.239,18.728
'0:02.734',-44.629,1526.012,55.96,4.247,-64.709,2.421,-6.738,3.538,2.295,-6.807,3.372,-0.492,0.592,-0.225,18.732
'0:02.738',-28.716,1538.455,54.753,4.324,-63.199,2.495,-6.726,3.6,2.352,-6.777,3.461,-0.492,0.604,-0.189,18.736
'0:02.742',-24.945,1568.498,53.771,4.447,-61.743,2.557,-6.667,3.65,2.38,-6.767,3.491,-0.492,0.604,-0.189,18.739
'0:02.746',-37.351,1538.455,52.592,4.983,-60.471,2.631,-6.631,3.725,2.447,-6.669,3.59,-0.498,0.597,-0.204,18.743
'0:02.750',-22.794,1551.665,51.737,5.459,-59.014,2.68,-6.584,3.75,2.504,-6.63,3.64,-0.482,0.603,-0.256,18.747
'0:02.754',3.11,1572.163,49.866,5.995,-56.377,2.73,-6.5,3.789,2.553,-6.583,3.632,-0.494,0.594,-0.223,18.751
'0:02.758',16.31,1615.373,48.87,6.486,-55.105,2.743,-6.417,3.766,2.62,-6.526,3.594,-0.494,0.606,-0.179,18.755
'0:02.762',21.703,1587.546,47.775,6.992,-53.48,2.769,-6.333,3.78,2.62,-6.418,3.654,-0.487,0.604,-0.185,18.759
'0:02.766',12.803,1621.254,46.674,7.161,-52.284,2.819,-6.226,3.759,2.639,-6.37,3.654,-0.487,0.604,-0.185,18.763
'0:02.770',27.889,1663.74,45.028,7.544,-50.92,2.845,-6.131,3.736,2.669,-6.109,3.628,-0.489,0.604,-0.202,18.767
'0:02.773',35.465,1684.238,43.51,8.05,-49.364,2.882,-6.06,3.726,2.756,-6.101,3.62,-0.489,0.615,-0.152,18.771
'0:02.777',31.396,1687.178,41.935,8.157,-47.884,2.907,-5.989,3.704,2.803,-6.024,3.631,-0.503,0.619,-0.168,18.775
'0:02.781',37.351,1716.497,40.099,8.648,-46.459,2.921,-5.917,3.705,2.775,-5.956,3.621,-0.51,0.608,-0.143,18.779
'0:02.785',60.245,1749.437,38.277,9.169,-44.818,2.933,-5.882,3.694,2.842,-5.907,3.662,-0.52,0.619,-0.137,18.782
'0:02.789',74.537,1791.924,36.179,9.675,-43.393,2.958,-5.834,3.695,2.803,-5.878,3.661,-0.505,0.613,-0.17,18.786
'0:02.793',67.788,1790.475,34.378,10.181,-41.607,2.958,-5.81,3.683,2.813,-5.83,3.623,-0.505,0.613,-0.17,18.79
'0:02.797',34.638,1820.518,32.323,10.595,-40.05,2.946,-5.798,3.683,2.823,-5.772,3.594,-0.491,0.619,-0.131,18.794
'0:02.801',55.414,1860.064,30.127,10.518,-38.464,2.947,-5.774,3.696,2.813,-5.772,3.594,-0.505,0.615,-0.164,18.798
'0:02.805',43.008,1855.674,28.114,10.948,-36.777,2.934,-5.761,3.733,2.813,-5.762,3.623,-0.501,0.613,-0.133,18.802
'0:02.809',25.739,1882.053,26.08,10.978,-34.915,2.934,-5.796,3.756,2.813,-5.791,3.633,-0.499,0.624,-0.181,18.806
'0:02.813',52.172,1865.944,23.976,11.193,-32.991,2.921,-5.819,3.78,2.803,-5.799,3.701,-0.512,0.612,-0.137,18.81
'0:02.816',48.665,1900.377,22.119,10.994,-31.159,2.921,-5.867,3.839,2.774,-5.847,3.719,-0.512,0.612,-0.137,18.814
'0:02.820',83.701,1882.777,19.915,10.994,-29.304,2.908,-5.901,3.911,2.764,-5.923,3.777,-0.508,0.624,-0.114,18.818
'0:02.824',104.212,1907.706,18.213,10.641,-27.196,2.907,-5.948,3.958,2.753,-5.989,3.904,-0.512,0.622,-0.129,18.821
'0:02.828',136.27,1886.442,16.645,10.288,-25.272,2.907,-6.006,4.09,2.772,-5.969,3.953,-0.512,0.629,-0.101,18.825
'0:02.832',148.147,1888.658,15.141,9.767,-23.409,2.931,-6.029,4.176,2.761,-6.044,4.079,-0.506,0.619,-0.126,18.829
'0:02.836',54.058,1863.729,13.602,8.939,-21.501,2.93,-6.051,4.247,2.732,-6.081,4.117,-0.496,0.622,-0.124,18.833
'0:02.840',44.332,1889.382,12.203,7.758,-19.293,2.905,-6.098,4.294,2.75,-6.089,4.225,-0.505,0.615,-0.147,18.837
'0:02.844',42.744,1835.177,10.89,6.563,-17.3,2.881,-6.12,4.355,2.731,-6.147,4.214,-0.505,0.615,-0.147,18.841
'0:02.848',143.019,1826.356,9.244,5.244,-15.269,2.868,-6.18,4.366,2.731,-6.167,4.204,-0.51,0.62,-0.114,18.845
'0:02.852',213.651,1843.231,7.86,3.665,-13.169,2.904,-6.24,4.413,2.74,-6.195,4.283,-0.519,0.631,-0.12,18.849
'0:02.855',222.816,1804.41,6.405,2.024,-10.984,2.903,-6.312,4.424,2.75,-6.263,4.292,-0.519,0.622,-0.099,18.853
'0:02.859',240.614,1778.756,5.106,0.291,-8.968,2.926,-6.408,4.434,2.788,-6.37,4.321,-0.515,0.631,-0.11,18.857
'0:02.863',212.56,1786.086,3.806,-1.886,-7.259,2.95,-6.457,4.434,2.837,-6.449,4.253,-0.505,0.631,-0.124,18.861
'0:02.867',182.917,1797.805,2.161,-3.634,-5.343,2.974,-6.506,4.434,2.798,-6.506,4.32,-0.505,0.631,-0.124,18.864
'0:02.871',153.539,1776.54,0.72,-5.735,-3.465,2.986,-6.542,4.409,2.846,-6.575,4.291,-0.515,0.624,-0.108,18.868
'0:02.875',125.749,1737.719,-0.932,-7.697,-1.41,2.998,-6.579,4.396,2.855,-6.566,4.252,-0.517,0.631,-0.083,18.872
'0:02.879',155.16,1720.162,-2.465,-10.058,0.138,3.022,-6.616,4.36,2.875,-6.644,4.252,-0.51,0.626,-0.124,18.876
'0:02.883',127.933,1710.616,-4.322,-12.435,2.008,3.059,-6.678,4.299,2.933,-6.685,4.223,-0.501,0.622,-0.097,18.88
'0:02.887',103.385,1696.724,-6.229,-14.413,3.971,3.082,-6.74,4.237,2.943,-6.725,4.184,-0.51,0.627,-0.135,18.884
'0:02.891',76.985,1693.059,-8.418,-16.391,5.818,3.13,-6.827,4.151,2.972,-6.854,4.027,-0.512,0.617,-0.106,18.888
'0:02.895',76.985,1706.227,-10.876,-18.967,7.435,3.166,-6.937,4.078,2.983,-6.894,3.988,-0.512,0.617,-0.106,18.892
'0:02.898',55.117,1646.141,-13.545,-21.068,9.658,3.213,-7.071,4.064,3.031,-7.061,3.939,-0.503,0.624,-0.172,18.896
'0:02.902',46.25,1647.632,-16.271,-23.092,11.513,3.248,-7.24,4.061,3.059,-7.169,3.919,-0.519,0.626,-0.097,18.9
'0:02.906',24.68,1605.146,-19.018,-24.993,13.606,3.283,-7.433,4.07,3.078,-7.372,3.957,-0.512,0.629,-0.095,18.904
'0:02.910',-17.104,1621.979,-21.434,-26.986,16.135,3.281,-7.612,4.115,3.117,-7.499,3.956,-0.52,0.612,-0.124,18.907
'0:02.914',-49.459,1601.481,-23.813,-28.657,18.366,3.267,-7.743,4.185,3.125,-7.671,4.072,-0.527,0.617,-0.093,18.911
'0:02.918',-57.829,1526.736,-25.84,-30.267,20.619,3.204,-7.883,4.34,3.027,-7.87,4.274,-0.527,0.617,-0.093,18.915
'0:02.922',-84.263,1489.364,-27.02,-31.785,23.026,3.056,-7.973,4.469,2.95,-7.906,4.36,-0.517,0.622,-0.122,18.919
'0:02.926',-103.914,1475.471,-28.008,-33.104,25.226,2.897,-8.016,4.526,2.785,-7.969,4.464,-0.519,0.62,-0.137,18.923
'0:02.930',-112.549,1408.78,-27.789,-36.907,30.009,2.75,-7.999,4.634,2.679,-7.976,4.511,-0.51,0.62,-0.147,18.927
'0:02.934',-161.612,1408.78,-26.956,-39.712,32.447,2.517,-7.955,4.728,2.447,-7.999,4.634,-0.526,0.601,-0.149,18.931
'0:02.938',-231.186,1356.791,-25.932,-43.438,35.037,2.273,-7.89,4.713,2.178,-7.917,4.63,-0.506,0.608,-0.129,18.935
'0:02.941',-240.35,1302.543,-24.626,-48.437,37.529,2.041,-7.863,4.577,2.024,-7.905,4.588,-0.513,0.604,-0.175,18.939
'0:02.945',-202.602,1275.441,-23.114,-54.309,39.874,1.907,-7.791,4.42,1.824,-7.827,4.44,-0.513,0.604,-0.175,18.943
'0:02.949',-185.068,1295.256,-21.794,-60.918,42.005,1.81,-7.733,4.201,1.777,-7.809,4.312,-0.527,0.603,-0.139,18.946
'0:02.953',-136.534,1241.775,-20.48,-68.339,43.791,1.799,-7.605,3.937,1.711,-7.697,4.019,-0.527,0.601,-0.143,18.95
'0:02.957',-121.449,1238.835,-19.619,-75.883,45.309,1.838,-7.455,3.699,1.704,-7.594,3.805,-0.527,0.596,-0.141,18.954
'0:02.961',-125.22,1220.511,-19.082,-82.89,46.198,1.975,-7.282,3.486,1.812,-7.446,3.495,-0.534,0.599,-0.133,18.958
'0:02.965',-162.174,1223.451,-19.032,-89.039,47.317,2.124,-7.133,3.273,1.94,-7.211,3.216,-0.531,0.587,-0.135,18.962
'0:02.969',-192.081,1265.938,-19.421,-94.436,47.93,2.273,-6.971,3.108,2.056,-7.128,3.092,-0.531,0.581,-0.141,18.966
'0:02.973',-213.387,1282.77,-20.417,-99.113,48.26,2.432,-6.895,2.918,2.251,-6.932,2.843,-0.541,0.581,-0.141,18.97
'0:02.977',-188.839,1297.43,-21.893,-102.7,49.011,2.556,-6.815,2.825,2.348,-6.877,2.767,-0.531,0.581,-0.185,18.974
'0:02.980',-178.881,1308.424,-23.369,-105.966,49.287,2.63,-6.806,2.753,2.474,-6.853,2.623,-0.543,0.574,-0.17,18.978
'0:02.984',-179.41,1314.305,-25.325,-108.972,49.839,2.703,-6.809,2.669,2.524,-6.809,2.409,-0.529,0.571,-0.175,18.982
'0:02.988',-188.574,1315.754,-27.401,-110.888,50.069,2.752,-6.847,2.633,2.639,-6.868,2.489,-0.552,0.551,-0.2,18.986
'0:02.992',-209.351,1359.689,-29.449,-111.916,50.743,2.788,-6.944,2.668,2.696,-6.965,2.538,-0.55,0.565,-0.175,18.989
'0:02.996',-188.045,1331.137,-31.215,-112.36,51.456,2.81,-7.122,2.799,2.705,-7.051,2.635,-0.55,0.565,-0.175,18.993
'0:03.000',-181.031,1375.839,-33.008,-111.885,52.759,2.82,-7.299,2.965,2.713,-7.243,2.731,-0.557,0.553,-0.189,18.997
'0:03.004',-195.588,1342.856,-34.647,-111.057,54.446,2.817,-7.572,3.165,2.693,-7.366,2.886,-0.566,0.546,-0.175,19.001
'0:03.008',-216.364,1343.581,-35.657,-109.662,57.151,2.814,-7.845,3.33,2.642,-7.709,3.185,-0.567,0.546,-0.181,19.005
'0:03.012',-190.46,1335.527,-36.405,-107.944,60.279,2.861,-8.012,3.449,2.727,-7.989,3.341,-0.548,0.535,-0.208,19.009
'0:03.016',-174.845,1290.1,-36.843,-106.258,63.337,2.92,-8.18,3.555,2.765,-8.066,3.399,-0.559,0.534,-0.248,19.013
'0:03.020',-168.096,1298.154,-36.984,-104.218,66.917,2.993,-8.229,3.556,2.793,-8.192,3.447,-0.581,0.521,-0.214,19.017
'0:03.023',-162.439,1235.895,-37.754,-102.148,70.19,3.03,-8.194,3.557,2.841,-8.212,3.467,-0.581,0.521,-0.214,19.021
'0:03.027',-180.237,1204.403,-38.453,-99.665,73.547,3.068,-8.135,3.558,2.879,-8.192,3.517,-0.576,0.521,-0.214,19.025
'0:03.031',-170.776,1172.911,-39.597,-97.411,77.073,3.154,-8.042,3.513,2.908,-8.144,3.508,-0.571,0.516,-0.212,19.029
'0:03.035',-158.667,1173.635,-41.116,-94.942,80.277,3.229,-7.96,3.479,2.995,-8.04,3.462,-0.59,0.516,-0.208,19.032
'0:03.039',-169.452,1119.43,-42.662,-92.243,83.604,3.254,-7.889,3.444,3.073,-7.985,3.376,-0.58,0.509,-0.212,19.036
'0:03.043',-161.876,1094.501,-44.647,-89.867,87.23,3.254,-7.877,3.433,3.073,-7.956,3.356,-0.588,0.503,-0.246,19.04
'0:03.047',-146.526,1038.847,-46.822,-87.996,90.51,3.266,-7.889,3.433,3.102,-7.898,3.387,-0.588,0.503,-0.246,19.044
'0:03.051',-154.069,1063.009,-48.835,-85.543,94.527,3.266,-7.901,3.444,3.083,-7.937,3.327,-0.583,0.489,-0.273,19.048
'0:03.055',-141.662,1026.361,-51.172,-83.611,98.842,3.241,-7.972,3.455,3.073,-7.974,3.405,-0.583,0.488,-0.254,19.052
'0:03.059',-137.362,1005.139,-53.192,-82.124,102.667,3.167,-8.006,3.489,2.976,-8.002,3.413,-0.594,0.484,-0.264,19.056
'0:03.063',-129.819,996.318,-55.409,-80.575,106.507,3.13,-8.077,3.5,2.928,-8.069,3.402,-0.576,0.482,-0.296,19.06
'0:03.066',-129.256,942.113,-57.26,-79.716,110.509,3.055,-8.147,3.521,2.889,-8.165,3.439,-0.587,0.466,-0.289,19.064
'0:03.070',-135.211,926.729,-59.145,-79.103,114.418,2.931,-8.264,3.53,2.841,-8.203,3.438,-0.564,0.473,-0.292,19.068
'0:03.074',-139.777,960.437,-61.123,-79.118,118.205,2.857,-8.347,3.527,2.697,-8.366,3.425,-0.564,0.473,-0.292,19.071
'0:03.078',-136.832,904.783,-62.846,-79.149,122.183,2.734,-8.44,3.524,2.649,-8.462,3.433,-0.592,0.466,-0.279,19.075
'0:03.082',-130.613,934.783,-64.569,-79.747,126.245,2.622,-8.558,3.484,2.476,-8.557,3.39,-0.592,0.466,-0.287,19.079
'0:03.086',-129.256,923.064,-66.539,-81.112,130.247,2.56,-8.654,3.457,2.39,-8.692,3.329,-0.576,0.459,-0.333,19.083
'0:03.090',-133.855,892.297,-68.397,-82.246,134.524,2.497,-8.785,3.418,2.37,-8.78,3.318,-0.578,0.445,-0.312,19.087
'0:03.094',-137.891,941.389,-70.233,-83.657,138.54,2.423,-8.893,3.366,2.294,-8.916,3.238,-0.59,0.445,-0.331,19.091
'0:03.098',-120.655,919.4,-72.034,-85.282,143.139,2.372,-9.049,3.314,2.246,-8.983,3.237,-0.59,0.445,-0.331,19.095
'0:03.102',-116.056,923.789,-75.374,-88.379,151.356,2.334,-9.144,3.3,2.208,-9.149,3.186,-0.581,0.433,-0.346,19.099
'0:03.105',-113.376,934.059,-77.055,-90.173,155.687,2.308,-9.301,3.261,2.17,-9.305,3.086,-0.571,0.434,-0.427,19.103
'0:03.109',-100.143,905.507,-78.743,-91.891,159.098,2.319,-9.422,3.186,2.16,-9.383,3.036,-0.573,0.417,-0.39,19.107
'0:03.113',-104.477,936.275,-80.388,-93.93,162.954,2.366,-9.581,3.135,2.17,-9.637,2.996,-0.573,0.415,-0.411,19.111
'0:03.117',-103.914,915.735,-81.829,-95.371,166.227,2.389,-9.739,3.06,2.199,-9.696,2.976,-0.56,0.406,-0.394,19.114
'0:03.121',-99.349,960.437,-83.269,-96.506,169.477,2.437,-9.849,3.01,2.257,-9.833,2.947,-0.56,0.403,-0.457,19.118
'0:03.125',-96.934,939.94,-84.788,-97.779,172.244,2.497,-9.935,2.961,2.296,-9.883,2.898,-0.56,0.403,-0.457,19.122
'0:03.129',-99.349,912.837,-86.243,-98.055,175.149,2.582,-9.986,2.913,2.363,-9.964,2.811,-0.559,0.394,-0.421,19.126
'0:03.133',-87.77,946.502,-87.549,-97.763,177.702,2.655,-10.05,2.852,2.489,-10.063,2.832,-0.56,0.379,-0.465,19.13
'0:03.137',-72.651,925.28,-89.152,-96.552,179.909,2.764,-10.125,2.817,2.546,-10.113,2.783,-0.555,0.358,-0.492,19.134
'0:03.141',-53.231,898.902,-90.219,-94.528,182.216,2.874,-10.2,2.793,2.671,-10.213,2.746,-0.548,0.367,-0.48,19.138
'0:03.145',-49.195,863.021,-91.709,-91.829,184.401,2.971,-10.335,2.743,2.739,-10.311,2.765,-0.548,0.358,-0.501,19.142
'0:03.148',-49.195,834.427,-92.683,-88.333,185.712,3.08,-10.423,2.706,2.912,-10.422,2.699,-0.548,0.358,-0.501,19.146
'0:03.152',-52.702,852.027,-93.856,-84.025,187.421,3.164,-10.581,2.681,3.018,-10.561,2.641,-0.531,0.353,-0.545,19.15
'0:03.156',-39.501,820.492,-94.851,-78.95,189.207,3.248,-10.668,2.644,3.076,-10.64,2.613,-0.536,0.335,-0.553,19.154
'0:03.160',-38.145,773.617,-95.353,-73.215,190.288,3.296,-10.826,2.618,3.22,-10.817,2.633,-0.508,0.33,-0.547,19.157
'0:03.164',-33.844,704.752,-96.207,-67.067,191.353,3.356,-10.947,2.604,3.249,-10.924,2.633,-0.529,0.321,-0.555,19.161
'0:03.168',-32.223,697.423,-96.645,-60.32,192.158,3.404,-11.069,2.602,3.278,-11.071,2.593,-0.517,0.319,-0.557,19.165
'0:03.172',-19.817,657.877,-97.316,-53.466,193.017,3.402,-11.226,2.563,3.297,-11.149,2.573,-0.492,0.309,-0.597,19.169
'0:03.176',-7.94,621.229,-97.676,-46.137,193.791,3.412,-11.418,2.56,3.326,-11.392,2.582,-0.492,0.309,-0.597,19.173
'0:03.180',8.502,573.629,-97.98,-38.93,194.343,3.386,-11.598,2.569,3.23,-11.625,2.51,-0.501,0.3,-0.607,19.177
'0:03.184',28.716,488.656,-97.839,-31.279,194.818,3.346,-11.813,2.564,3.23,-11.761,2.538,-0.482,0.289,-0.641,19.181
'0:03.188',31.661,459.338,-97.945,-24.103,195.132,3.295,-12.053,2.547,3.191,-12.012,2.525,-0.48,0.28,-0.63,19.185
'0:03.191',45.688,424.905,-97.613,-16.912,195.4,3.232,-12.232,2.519,3.172,-12.109,2.554,-0.452,0.282,-0.705,19.189
'0:03.195',88.034,388.257,-96.652,-10.61,195.232,3.132,-12.399,2.478,3.066,-12.321,2.521,-0.452,0.266,-0.685,19.193
'0:03.199',86.413,358.981,-96.009,-4.508,194.902,3.033,-12.469,2.463,3.057,-12.401,2.374,-0.452,0.273,-0.659,19.196
'0:03.203',92.865,311.339,-94.88,0.445,194.373,2.922,-12.564,2.4,2.922,-12.533,2.497,-0.443,0.273,-0.659,19.2
'0:03.207',82.907,293.782,-93.983,4.723,193.576,2.799,-12.61,2.348,2.788,-12.611,2.358,-0.428,0.263,-0.708,19.204
'0:03.211',96.107,236.636,-93.072,8.05,192.235,2.689,-12.597,2.275,2.73,-12.572,2.328,-0.429,0.255,-0.682,19.208
'0:03.215',72.651,211.707,-91.857,10.641,190.84,2.579,-12.572,2.189,2.558,-12.579,2.295,-0.396,0.255,-0.693,19.212
'0:03.219',55.414,219.037,-90.967,12.726,189.092,2.494,-12.536,2.116,2.481,-12.55,2.197,-0.391,0.252,-0.731,19.216
'0:03.223',60.807,239.577,-89.929,14.168,187.314,2.409,-12.498,2.055,2.376,-12.521,2.127,-0.372,0.231,-0.751,19.22
'0:03.227',33.844,227.858,-88.87,14.628,185.29,2.3,-12.425,1.994,2.329,-12.445,1.97,-0.372,0.231,-0.751,19.224
'0:03.230',47.574,274.733,-87.789,14.382,182.791,2.19,-12.364,1.921,2.243,-12.415,1.959,-0.38,0.234,-0.739,19.228
'0:03.234',24.382,286.452,-86.949,13.585,180.17,2.08,-12.302,1.872,2.156,-12.355,1.939,-0.365,0.229,-0.768,19.232
'0:03.238',22.794,308.441,-85.819,12.22,177.594,1.996,-12.192,1.861,2.041,-12.286,1.937,-0.333,0.227,-0.756,19.236
'0:03.242',-3.374,373.641,-84.406,10.549,174.544,1.948,-12.108,1.825,1.994,-12.161,1.82,-0.33,0.213,-0.802,19.239
'0:03.246',-28.981,391.198,-83.072,8.632,171.232,1.899,-12.059,1.789,1.946,-12.14,1.859,-0.314,0.211,-0.772,19.243
'0:03.250',-62.13,461.554,-81.843,6.379,167.967,1.839,-11.986,1.79,1.869,-12.082,1.799,-0.319,0.211,-0.804,19.247
'0:03.254',-85.586,515.034,-80.388,3.956,164.395,1.766,-11.936,1.79,1.822,-11.994,1.78,-0.319,0.211,-0.804,19.251
'0:03.258',-121.449,584.623,-78.637,1.794,161.06,1.742,-11.911,1.802,1.793,-11.994,1.76,-0.3,0.213,-0.787,19.255
'0:03.262',-163.795,654.936,-77.189,-0.721,156.875,1.693,-11.862,1.814,1.764,-11.905,1.779,-0.281,0.193,-0.8,19.259
'0:03.266',-203.958,704.752,-75.572,-2.867,152.866,1.669,-11.813,1.826,1.744,-11.846,1.828,-0.263,0.195,-0.871,19.263
'0:03.270',-221.194,787.552,-73.63,-5.367,149.026,1.645,-11.74,1.852,1.667,-11.776,1.847,-0.267,0.183,-0.848,19.267
'0:03.273',-246.272,893.789,-69.767,-10.288,140.717,1.621,-11.703,1.865,1.609,-11.746,1.837,-0.255,0.185,-0.827,19.271
'0:03.277',-282.398,980.934,-67.45,-12.726,136.455,1.585,-11.666,1.877,1.648,-11.707,1.877,-0.255,0.185,-0.827,19.275
'0:03.281',-307.475,1054.955,-64.971,-15.532,131.841,1.512,-11.664,1.887,1.542,-11.696,1.885,-0.255,0.185,-0.833,19.279
'0:03.285',-300.462,1098.166,-62.111,-18.522,127.349,1.463,-11.639,1.9,1.523,-11.657,1.865,-0.248,0.174,-0.82,19.282
'0:03.289',-318.525,1159.701,-59.534,-21.681,122.581,1.415,-11.577,1.936,1.484,-11.569,1.865,-0.216,0.181,-0.816,19.286
'0:03.293',-326.068,1235.895,-56.695,-25.315,117.745,1.342,-11.491,1.901,1.446,-11.529,1.894,-0.221,0.172,-0.856,19.29
'0:03.297',-313.662,1320.867,-53.722,-28.765,112.946,1.32,-11.335,1.879,1.388,-11.382,1.904,-0.204,0.172,-0.873,19.294
'0:03.301',-324.447,1384.618,-50.861,-33.043,108.27,1.309,-11.155,1.846,1.34,-11.197,1.905,-0.209,0.158,-0.892,19.298
'0:03.305',-316.375,1447.602,-47.726,-37.397,103.556,1.275,-10.95,1.837,1.321,-11.09,1.896,-0.209,0.158,-0.892,19.302
'0:03.309',-300.727,1503.298,-45.148,-41.629,98.704,1.289,-10.747,1.792,1.302,-10.838,1.858,-0.179,0.151,-0.869,19.306
'0:03.313',-308.269,1580.941,-42.592,-46.168,94.603,1.279,-10.568,1.723,1.332,-10.722,1.84,-0.185,0.151,-0.915,19.31
'0:03.316',-249.778,1642.476,-40.198,-50.706,90.679,1.306,-10.365,1.69,1.313,-10.46,1.803,-0.192,0.151,-0.85,19.314
'0:03.320',-153.804,1723.059,-37.514,-54.846,85.789,1.356,-10.223,1.633,1.372,-10.23,1.698,-0.179,0.142,-0.894,19.318
'0:03.324',23.853,1772.151,-35.678,-58.863,81.757,1.407,-10.057,1.6,1.392,-10.134,1.66,-0.167,0.137,-0.858,19.321
'0:03.328',136.27,1797.08,-33.99,-62.421,78.146,1.494,-9.926,1.604,1.469,-9.962,1.585,-0.167,0.137,-0.858,19.325
'0:03.332',235.222,1822.691,-32.14,-65.472,74.643,1.581,-9.82,1.607,1.527,-9.906,1.547,-0.165,0.128,-0.908,19.329
'0:03.336',256.263,1873.999,-30.424,-68.125,71.439,1.669,-9.702,1.61,1.671,-9.733,1.59,-0.167,0.128,-0.877,19.333
'0:03.340',168.096,1922.323,-28.813,-70.271,68.12,1.754,-9.644,1.625,1.671,-9.713,1.6,-0.146,0.128,-0.938,19.337
'0:03.344',45.953,1917.934,-27.38,-72.494,64.947,1.816,-9.62,1.662,1.777,-9.666,1.602,-0.162,0.108,-0.912,19.341
'0:03.348',7.675,1947.977,-25.869,-74.304,61.812,1.816,-9.62,1.65,1.806,-9.647,1.603,-0.15,0.117,-0.883,19.345
'0:03.352',8.238,1978.744,-24.223,-75.622,58.999,1.865,-9.621,1.675,1.854,-9.648,1.604,-0.155,0.116,-0.887,19.349
'0:03.355',33.282,1986.798,-22.493,-76.358,56.324,1.877,-9.657,1.699,1.853,-9.636,1.711,-0.155,0.116,-0.887,19.353
'0:03.359',59.186,1961.187,-21.306,-77.094,54.101,1.889,-9.657,1.711,1.872,-9.637,1.711,-0.143,0.116,-0.915,19.357
'0:03.363',42.181,1950.193,-19.76,-77.662,51.794,1.901,-9.632,1.76,1.844,-9.636,1.731,-0.15,0.1,-0.925,19.361
'0:03.367',-17.931,1952.366,-18.305,-77.815,49.969,1.877,-9.643,1.796,1.843,-9.645,1.77,-0.141,0.103,-0.927,19.364
'0:03.371',-61.601,1943.587,-17.112,-78.229,47.854,1.816,-9.641,1.819,1.814,-9.664,1.769,-0.141,0.1,-0.887,19.368
'0:03.375',-59.715,1906.939,-15.53,-78.996,45.976,1.742,-9.663,1.842,1.718,-9.71,1.786,-0.141,0.103,-0.883,19.372
'0:03.379',-75.099,1890.107,-13.828,-80.146,44.458,1.643,-9.733,1.864,1.66,-9.69,1.786,-0.141,0.103,-0.883,19.376
'0:03.383',-14.424,1834.453,-12.599,-81.802,42.833,1.52,-9.789,1.873,1.544,-9.736,1.832,-0.125,0.1,-0.91,19.38
'0:03.387',7.675,1791.924,-10.862,-84.378,41.745,1.396,-9.907,1.857,1.438,-9.811,1.839,-0.136,0.091,-0.896,19.384
'0:03.391',2.018,1733.329,-9.322,-87.505,40.119,1.285,-10.001,1.83,1.284,-9.963,1.894,-0.132,0.092,-0.877,19.388
'0:03.395',-21.967,1699.622,-7.486,-91.17,38.678,1.223,-10.048,1.804,1.246,-9.992,1.864,-0.125,0.087,-0.898,19.392
'0:03.398',9.032,1638.811,-5.438,-95.233,37.751,1.2,-9.951,1.817,1.246,-9.974,1.796,-0.113,0.078,-0.948,19.396
'0:03.402',14.954,1602.93,-3.369,-99.343,36.141,1.263,-9.797,1.821,1.218,-9.829,1.728,-0.127,0.069,-0.915,19.4
'0:03.406',36.524,1548.001,-1.532,-103.329,35.229,1.376,-9.559,1.827,1.237,-9.752,1.729,-0.127,0.069,-0.915,19.404
'0:03.410',34.638,1534.79,-0.148,-107.101,34.44,1.5,-9.37,1.796,1.382,-9.483,1.714,-0.122,0.08,-0.885,19.407
'0:03.414',44.332,1514.293,0.876,-110.566,33.366,1.625,-9.144,1.802,1.421,-9.23,1.736,-0.11,0.078,-0.894,19.411
'0:03.418',26.566,1435.158,1.582,-113.158,32.7,1.761,-8.991,1.794,1.603,-9.117,1.76,-0.097,0.068,-0.933,19.415
'0:03.422',47.044,1429.32,1.857,-115.596,32.086,1.861,-8.885,1.798,1.767,-8.955,1.715,-0.097,0.077,-0.86,19.419
'0:03.426',66.464,1396.337,1.9,-117.221,31.351,1.923,-8.767,1.801,1.816,-8.878,1.726,-0.11,0.064,-0.91,19.423
'0:03.430',65.108,1400.002,1.9,-119.214,30.783,1.986,-8.648,1.779,1.854,-8.724,1.719,-0.11,0.064,-0.91,19.427
'0:03.434',61.336,1382.402,1.843,-119.996,30.316,2.073,-8.53,1.795,1.902,-8.617,1.75,-0.117,0.062,-0.881,19.431
'0:03.438',75.893,1361.905,1.674,-119.567,30.055,2.16,-8.423,1.834,1.979,-8.491,1.781,-0.106,0.071,-0.896,19.435
'0:03.441',78.043,1345.797,1.299,-118.769,29.618,2.271,-8.328,1.898,2.152,-8.368,1.814,-0.104,0.062,-0.912,19.439
'0:03.445',81.55,1328.921,0.876,-117.328,29.342,2.369,-8.33,1.924,2.18,-8.329,1.835,-0.094,0.064,-0.896,19.443
'0:03.449',96.934,1278.381,-0.41,-111.977,28.737,2.466,-8.355,1.973,2.315,-8.32,1.915,-0.097,0.05,-0.927,19.446
'0:03.453',93.427,1259.332,-1.172,-108.159,28.468,2.539,-8.476,2.008,2.362,-8.358,2.004,-0.083,0.057,-0.892,19.45
'0:03.457',92.071,1277.657,-1.879,-103.743,28.476,2.598,-8.597,2.043,2.458,-8.515,1.984,-0.083,0.057,-0.892,19.454
'0:03.461',94.486,1213.906,-2.239,-98.729,28.43,2.646,-8.682,2.078,2.458,-8.592,2.033,-0.089,0.041,-0.965,19.458
'0:03.465',81.55,1219.062,-2.825,-93.393,28.162,2.707,-8.742,2.138,2.611,-8.681,2.073,-0.096,0.048,-0.912,19.462
'0:03.469',96.934,1174.36,-3.107,-87.904,28.384,2.756,-8.742,2.212,2.668,-8.72,2.133,-0.092,0.05,-0.908,19.466
'0:03.473',107.984,1186.079,-3.397,-82.216,28.323,2.793,-8.742,2.249,2.697,-8.671,2.182,-0.082,0.046,-0.881,19.47
'0:03.477',106.098,1173.635,-4.138,-76.512,27.886,2.817,-8.766,2.297,2.725,-8.768,2.221,-0.085,0.048,-0.935,19.474
'0:03.480',109.869,1161.917,-4.682,-70.823,27.817,2.828,-8.861,2.344,2.697,-8.796,2.23,-0.085,0.045,-0.889,19.478
'0:03.484',113.906,1129.658,-5.395,-64.966,27.717,2.814,-8.982,2.329,2.686,-8.922,2.248,-0.089,0.045,-0.889,19.482
'0:03.488',112.814,1095.95,-5.798,-59.477,27.311,2.826,-9.077,2.364,2.705,-9.066,2.355,-0.085,0.041,-0.919,19.486
'0:03.492',123.864,1090.836,-6.208,-54.11,27.181,2.812,-9.221,2.386,2.714,-9.163,2.374,-0.083,0.032,-0.931,19.489
'0:03.496',121.184,1054.231,-6.285,-48.468,26.629,2.812,-9.268,2.409,2.743,-9.24,2.413,-0.076,0.036,-0.906,19.493
'0:03.500',124.955,1047.626,-6.54,-43.239,26.031,2.786,-9.327,2.468,2.714,-9.268,2.432,-0.078,0.039,-0.923,19.497
'0:03.504',129.256,1049.799,-6.999,-37.888,25.425,2.774,-9.326,2.468,2.723,-9.318,2.402,-0.075,0.027,-0.931,19.501
'0:03.508',128.727,1071.063,-7.38,-32.399,24.59,2.712,-9.325,2.479,2.685,-9.308,2.392,-0.075,0.027,-0.931,19.505
'0:03.512',139.512,1063.009,-7.613,-27.078,24.076,2.675,-9.36,2.49,2.627,-9.365,2.371,-0.069,0.034,-0.948,19.509
'0:03.516',151.918,1043.961,-8.008,-21.972,23.394,2.589,-9.37,2.476,2.532,-9.393,2.35,-0.069,0.041,-0.921,19.513
'0:03.520',154.896,1031.517,-8.277,-16.636,22.421,2.54,-9.406,2.427,2.502,-9.382,2.398,-0.076,0.032,-0.908,19.517
'0:03.523',160.553,1032.242,-8.326,-11.684,21.654,2.491,-9.429,2.414,2.454,-9.42,2.387,-0.076,0.036,-0.894,19.521
'0:03.527',176.995,1084.998,-8.637,-6.977,20.305,2.454,-9.453,2.388,2.425,-9.439,2.367,-0.057,0.036,-0.91,19.525
'0:03.531',186.953,1076.944,-8.821,-2.745,19.14,2.38,-9.488,2.362,2.358,-9.498,2.297,-0.076,0.03,-0.923,19.529
'0:03.535',214.181,1087.171,-8.856,1.319,17.814,2.294,-9.522,2.348,2.291,-9.506,2.296,-0.076,0.03,-0.923,19.532
'0:03.539',216.629,1117.939,-8.835,4.983,16.549,2.233,-9.509,2.336,2.243,-9.526,2.256,-0.061,0.03,-0.938,19.536
'0:03.543',239.523,1131.874,-9.018,8.157,15.077,2.171,-9.556,2.322,2.147,-9.563,2.264,-0.066,0.025,-0.904,19.54
'0:03.547',271.878,1147.982,-8.912,11.147,13.928,2.11,-9.578,2.333,2.099,-9.552,2.292,-0.055,0.03,-0.969,19.544
'0:03.551',281.604,1192.684,-8.814,13.769,12.379,2.036,-9.588,2.38,2.012,-9.636,2.358,-0.071,0.018,-0.933,19.548
'0:03.555',293.713,1227.841,-8.199,15.609,11.13,1.937,-9.657,2.377,1.953,-9.693,2.396,-0.043,0.029,-0.885,19.552
'0:03.559',312.603,1249.83,-7.726,17.219,9.765,1.839,-9.667,2.388,1.828,-9.71,2.394,-0.043,0.029,-0.885,19.556
'0:03.563',333.611,1262.273,-7.359,18.185,8.531,1.716,-9.737,2.361,1.732,-9.748,2.343,-0.054,0.032,-0.885,19.56
'0:03.566',334.703,1279.872,-6.653,18.461,7.328,1.666,-9.856,2.37,1.627,-9.806,2.321,-0.05,0.034,-0.873,19.564
'0:03.570',330.931,1322.359,-5.734,18.292,5.872,1.542,-9.984,2.39,1.54,-9.91,2.387,-0.048,0.027,-0.889,19.568
'0:03.574',326.895,1352.402,-4.972,17.219,4.446,1.455,-10.127,2.362,1.482,-9.958,2.317,-0.055,0.025,-0.923,19.571
'0:03.578',312.339,1402.942,-3.701,15.946,2.997,1.379,-10.282,2.371,1.386,-10.17,2.334,-0.066,0.03,-0.896,19.575
'0:03.582',300.727,1414.661,-2.38,14.106,1.372,1.318,-10.341,2.32,1.308,-10.313,2.419,-0.055,0.032,-0.904,19.579
'0:03.586',286.17,1434.434,-0.812,11.868,-0.575,1.256,-10.34,2.307,1.232,-10.341,2.388,-0.055,0.032,-0.904,19.583
'0:03.590',281.869,1470.315,0.508,9.752,-2.047,1.184,-10.279,2.283,1.127,-10.274,2.25,-0.061,0.032,-0.917,19.587
'0:03.594',276.741,1500.358,2.302,6.471,-4.216,1.123,-10.17,2.224,1.069,-10.215,2.22,-0.052,0.03,-0.908,19.591
'0:03.598',261.655,1545.06,3.503,2.944,-6.4,1.051,-10.074,2.164,1.031,-10.127,2.23,-0.062,0.025,-0.942,19.595
'0:03.602',235.751,1596.325,4.725,-0.629,-8.455,1.028,-9.942,2.118,1.022,-10.05,2.182,-0.04,0.03,-0.908,19.599
'0:03.605',222.551,1594.876,6.144,-4.707,-10.685,1.005,-9.846,2.059,1.013,-9.927,2.046,-0.055,0.032,-0.965,19.603
'0:03.609',201.51,1668.854,7.076,-8.709,-13.084,1.007,-9.715,2.012,0.966,-9.811,1.939,-0.055,0.032,-0.965,19.607
'0:03.613',195.059,1652.746,8.016,-13.064,-15.514,1.019,-9.632,1.966,0.986,-9.715,1.911,-0.066,0.032,-0.896,19.611
'0:03.617',163.233,1720.162,8.602,-16.928,-17.668,1.069,-9.55,1.931,0.976,-9.589,1.872,-0.066,0.029,-0.91,19.614
'0:03.621',138.718,1701.838,9.958,-23.766,-22.375,1.119,-9.48,1.897,1.045,-9.533,1.815,-0.054,0.034,-0.887,19.618
'0:03.625',110.928,1736.994,10.261,-25.974,-24.444,1.218,-9.47,1.863,1.131,-9.515,1.837,-0.043,0.038,-0.908,19.622
'0:03.629',74.272,1747.989,10.374,-27.86,-26.491,1.315,-9.472,1.888,1.179,-9.467,1.858,-0.071,0.029,-0.91,19.626
'0:03.633',66.2,1763.372,10.24,-28.918,-28.645,1.401,-9.485,1.913,1.323,-9.498,1.898,-0.061,0.03,-0.956,19.63
'0:03.637',48.401,1799.253,10.261,-29.47,-30.446,1.536,-9.465,1.903,1.486,-9.481,1.892,-0.061,0.03,-0.956,19.634
'0:03.641',23.588,1810.248,10.035,-29.332,-32.201,1.646,-9.443,1.93,1.534,-9.481,1.932,-0.062,0.032,-0.933,19.638
'0:03.645',-1.489,1817.577,9.725,-28.811,-33.566,1.793,-9.433,2.005,1.679,-9.436,1.866,-0.066,0.034,-0.889,19.642
'0:03.648',-20.346,1801.469,9.428,-27.891,-34.915,1.928,-9.411,2.067,1.717,-9.416,1.925,-0.078,0.027,-0.915,19.646
'0:03.652',0.926,1767.037,9.329,-25.974,-36.172,2.039,-9.376,2.118,1.909,-9.418,1.997,-0.085,0.029,-0.889,19.65
'0:03.656',42.181,1759.707,8.877,-23.092,-36.908,2.149,-9.377,2.204,2.042,-9.427,2.165,-0.096,0.034,-0.894,19.654
'0:03.660',17.931,1730.389,8.383,-20.04,-37.421,2.296,-9.368,2.23,2.09,-9.408,2.186,-0.096,0.034,-0.894,19.657
'0:03.664',-45.688,1739.935,8.114,-16.345,-38.065,2.394,-9.382,2.256,2.282,-9.411,2.199,-0.087,0.039,-0.912,19.661
'0:03.668',-120.655,1676.184,7.747,-12.006,-38.64,2.492,-9.371,2.294,2.378,-9.412,2.239,-0.08,0.029,-0.9,19.665
'0:03.672',-135.476,1657.86,7.691,-6.915,-39.069,2.553,-9.36,2.295,2.436,-9.394,2.202,-0.092,0.027,-0.923,19.669
'0:03.676',-153.275,1643.243,7.535,-2.024,-39.499,2.601,-9.422,2.282,2.513,-9.425,2.203,-0.092,0.03,-0.896,19.673
'0:03.680',-150.562,1602.93,7.267,2.438,-40.219,2.637,-9.496,2.245,2.513,-9.463,2.212,-0.09,0.034,-0.954,19.677
'0:03.684',-132.498,1572.887,6.85,7.161,-40.71,2.66,-9.642,2.17,2.542,-9.621,2.123,-0.104,0.041,-0.883,19.681
'0:03.688',-123.07,1487.19,6.723,11.53,-41.492,2.672,-9.74,2.096,2.553,-9.671,2.074,-0.104,0.041,-0.883,19.685
'0:03.691',-117.942,1473.98,6.653,15.701,-42.181,2.683,-9.838,2.021,2.621,-9.81,1.977,-0.111,0.039,-0.896,19.689
'0:03.695',-133.59,1401.451,6.645,19.979,-42.979,2.683,-9.863,1.96,2.601,-9.819,1.967,-0.117,0.036,-0.9,19.693
'0:03.699',-132.763,1381.678,6.497,23.674,-43.607,2.682,-9.888,1.912,2.621,-9.897,1.957,-0.113,0.034,-0.883,19.696
'0:03.703',-117.677,1316.478,6.073,27.599,-44.289,2.682,-9.949,1.85,2.593,-9.938,1.839,-0.115,0.039,-0.873,19.7
'0:03.707',-93.129,1293.04,5.48,31.479,-45.209,2.681,-9.986,1.789,2.602,-9.977,1.809,-0.122,0.03,-0.896,19.704
'0:03.711',-101.235,1284.986,5.014,35.128,-45.554,2.668,-10.071,1.727,2.583,-10.046,1.76,-0.122,0.03,-0.921,19.708
'0:03.715',-98.257,1227.841,4.223,38.639,-46.466,2.668,-10.108,1.677,2.584,-10.066,1.72,-0.127,0.032,-0.921,19.712
'0:03.719',-83.701,1180.241,3.552,42.426,-46.865,2.655,-10.18,1.64,2.585,-10.126,1.612,-0.125,0.043,-0.892,19.716
'0:03.723',-87.207,1150.198,2.655,45.892,-47.731,2.679,-10.278,1.602,2.565,-10.224,1.572,-0.11,0.039,-0.887,19.72
'0:03.727',-61.601,1120.879,1.624,49.633,-48.528,2.703,-10.303,1.59,2.575,-10.302,1.581,-0.134,0.029,-0.915,19.724
'0:03.730',-67.523,1112.101,0.636,53.144,-49.134,2.726,-10.364,1.565,2.624,-10.284,1.524,-0.145,0.041,-0.887,19.728
'0:03.734',-64.016,1094.501,-0.078,56.548,-50.153,2.775,-10.401,1.553,2.681,-10.324,1.515,-0.138,0.055,-0.9,19.732
'0:03.738',-66.729,1076.944,-0.946,60.642,-50.743,2.824,-10.438,1.553,2.777,-10.374,1.555,-0.138,0.055,-0.9,19.736
'0:03.742',-55.944,1055.68,-2.048,64.445,-51.502,2.885,-10.476,1.577,2.786,-10.411,1.623,-0.153,0.039,-0.879,19.739
'0:03.746',-46.78,1036.631,-2.839,68.815,-52.169,2.945,-10.512,1.626,2.854,-10.424,1.536,-0.16,0.055,-0.866,19.743
'0:03.750',-50.287,1021.972,-3.806,73.276,-53.012,2.993,-10.596,1.71,2.843,-10.498,1.692,-0.146,0.052,-0.9,19.747
'0:03.754',-45.953,1008.804,-4.47,78.474,-53.717,2.979,-10.785,1.863,2.881,-10.643,1.799,-0.138,0.057,-0.846,19.751
'0:03.758',-49.757,950.934,-5.297,83.764,-54.223,2.89,-11.045,1.954,2.85,-10.96,1.933,-0.159,0.048,-0.908,19.755
'0:03.762',-41.122,982.426,-5.29,88.517,-55.028,2.741,-11.306,1.984,2.764,-11.104,1.939,-0.16,0.048,-0.877,19.759
'0:03.766',-31.694,969.983,-4.654,91.385,-55.756,2.554,-11.518,1.977,2.552,-11.421,1.943,-0.16,0.048,-0.877,19.763
'0:03.770',-18.196,953.107,-3.008,96.184,-56.477,2.406,-11.61,1.998,2.474,-11.515,2,-0.16,0.062,-0.938,19.767
'0:03.773',-13.068,948.718,-0.699,99.68,-57.703,2.247,-11.643,1.995,2.311,-11.572,1.948,-0.186,0.061,-0.854,19.771
'0:03.777',-17.104,959.713,1.716,102.961,-59.175,2.1,-11.58,1.946,2.157,-11.511,1.936,-0.183,0.071,-0.858,19.775
'0:03.781',-9.032,974.372,4.258,104.74,-61.076,1.967,-11.41,1.862,2.032,-11.49,1.914,-0.188,0.069,-0.896,19.779
'0:03.785',-0.132,995.594,7.112,105.384,-63.268,1.811,-11.217,1.755,1.86,-11.304,1.825,-0.202,0.073,-0.852,19.782
'0:03.789',-1.753,1007.313,9.647,105.276,-65.246,1.703,-10.976,1.648,1.793,-11.148,1.796,-0.202,0.073,-0.852,19.786
'0:03.793',4.433,1025.637,12.267,104.356,-67.676,1.595,-10.783,1.53,1.699,-10.878,1.64,-0.192,0.082,-0.858,19.79
'0:03.797',-0.662,1030.026,16.85,99.665,-72.329,1.561,-10.569,1.4,1.595,-10.608,1.435,-0.2,0.089,-0.881,19.794
'0:03.801',6.054,1108.436,18.531,96.567,-74.406,1.526,-10.39,1.306,1.547,-10.483,1.357,-0.193,0.085,-0.9,19.798
'0:03.805',14.954,1155.311,20.106,93.899,-76.759,1.54,-10.271,1.235,1.519,-10.27,1.3,-0.213,0.084,-0.892,19.802
'0:03.809',29.775,1180.241,21.448,88.839,-79.296,1.517,-10.139,1.165,1.511,-10.213,1.213,-0.197,0.087,-0.858,19.806
'0:03.813',36.524,1243.224,22.839,88.287,-81.879,1.518,-10.032,1.106,1.482,-10.126,1.164,-0.211,0.092,-0.904,19.81
'0:03.816',31.958,1321.592,24.174,85.021,-84.279,1.531,-9.925,1.072,1.531,-10.061,1.068,-0.211,0.092,-0.904,19.814
'0:03.820',22.794,1403.667,25.233,82.844,-86.762,1.569,-9.842,1.074,1.551,-9.916,1.02,-0.228,0.105,-0.871,19.818
'0:03.824',16.045,1459.321,26.285,81.173,-89.016,1.607,-9.807,1.087,1.57,-9.83,1.002,-0.237,0.105,-0.846,19.821
'0:03.828',14.954,1507.688,27.147,80.314,-91.461,1.643,-9.807,1.076,1.56,-9.761,1.042,-0.23,0.11,-0.902,19.825
'0:03.832',5.26,1606.595,28.241,80.238,-93.063,1.704,-9.808,1.125,1.608,-9.819,1.071,-0.248,0.1,-0.86,19.829
'0:03.836',-0.397,1619.038,29.117,80.698,-94.91,1.752,-9.905,1.136,1.704,-9.85,1.072,-0.253,0.123,-0.833,19.833
'0:03.840',5.26,1702.562,29.894,81.848,-96.811,1.825,-10.014,1.171,1.723,-9.946,1.14,-0.253,0.123,-0.833,19.837
'0:03.844',13.895,1736.994,31.285,83.381,-98.52,1.896,-10.183,1.206,1.751,-10.022,1.238,-0.251,0.124,-0.831,19.841
'0:03.848',29.775,1779.48,32.45,85.987,-100.053,1.967,-10.388,1.288,1.856,-10.208,1.268,-0.281,0.128,-0.814,19.845
'0:03.852',37.053,1808.799,33.616,88.333,-101.671,2.038,-10.653,1.308,1.942,-10.519,1.325,-0.263,0.135,-0.818,19.849
'0:03.855',32.223,1818.302,34.943,90.081,-102.997,2.072,-10.919,1.316,1.98,-10.694,1.363,-0.277,0.139,-0.82,19.853
'0:03.859',37.616,1866.669,36.525,93.179,-104.108,2.093,-11.147,1.312,2.095,-11.006,1.372,-0.297,0.146,-0.81,19.857
'0:03.863',45.688,1830.788,38.326,96.107,-105.135,2.104,-11.34,1.309,2.037,-11.141,1.351,-0.3,0.162,-0.818,19.861
'0:03.867',45.688,1826.356,40.106,99.312,-106.255,2.102,-11.509,1.294,2.018,-11.394,1.329,-0.3,0.162,-0.818,19.864
'0:03.871',69.144,1852.734,41.652,102.24,-107.105,2.088,-11.629,1.291,2.056,-11.56,1.318,-0.297,0.165,-0.833,19.868
'0:03.875',78.87,1827.847,43.418,105.246,-108.117,2.087,-11.737,1.265,2.047,-11.639,1.259,-0.295,0.165,-0.839,19.872
'0:03.879',99.349,1757.492,45.099,108.159,-109.014,2.061,-11.858,1.214,2.028,-11.756,1.219,-0.314,0.169,-0.831,19.876
'0:03.883',108.513,1723.059,46.921,111.072,-109.949,2.073,-11.918,1.201,2.029,-11.834,1.17,-0.316,0.176,-0.804,19.88
'0:03.887',95.577,1710.616,48.432,113.74,-111.176,2.023,-11.989,1.187,1.999,-11.959,1.217,-0.326,0.192,-0.789,19.884
'0:03.891',104.477,1637.362,50.063,116.485,-111.689,2.022,-12.074,1.149,1.97,-12.007,1.206,-0.326,0.192,-0.789,19.888
'0:03.895',96.107,1595.601,51.151,119.045,-112.509,1.985,-12.11,1.099,1.981,-12.047,1.157,-0.332,0.186,-0.804,19.892
'0:03.898',97.993,1551.665,52.669,121.56,-113.284,1.985,-12.159,1.051,1.952,-12.126,1.049,-0.339,0.208,-0.791,19.896
'0:03.902',106.627,1507.688,53.813,124.596,-114.019,1.96,-12.16,1.014,1.953,-12.147,0.971,-0.33,0.209,-0.77,19.9
'0:03.906',125.749,1402.942,55.092,126.942,-114.901,1.911,-12.171,0.976,1.914,-12.156,0.97,-0.335,0.224,-0.797,19.904
'0:03.910',104.212,1400.002,56.37,128.905,-115.69,1.887,-12.136,0.904,1.867,-12.137,0.92,-0.349,0.225,-0.77,19.907
'0:03.914',98.257,1347.97,57.281,131.128,-116.396,1.801,-12.146,0.879,1.781,-12.127,0.87,-0.358,0.238,-0.772,19.911
'0:03.918',98.82,1279.872,58.171,133.075,-117.009,1.765,-12.135,0.818,1.752,-12.118,0.772,-0.358,0.238,-0.772,19.915
'0:03.922',104.477,1230.057,59.018,134.317,-117.791,1.74,-12.158,0.805,1.733,-12.108,0.772,-0.368,0.238,-0.781,19.919
'0:03.926',107.421,1220.511,59.873,135.896,-118.335,1.716,-12.17,0.768,1.657,-12.146,0.741,-0.366,0.259,-0.743,19.923
'0:03.930',104.212,1139.928,60.558,137.399,-119.124,1.691,-12.194,0.768,1.618,-12.175,0.74,-0.38,0.266,-0.747,19.927
'0:03.934',114.435,1150.922,61.123,138.733,-119.347,1.678,-12.206,0.755,1.657,-12.244,0.711,-0.37,0.278,-0.764,19.931
'0:03.938',128.991,1104.047,61.899,140.006,-119.722,1.666,-12.193,0.767,1.599,-12.234,0.72,-0.386,0.28,-0.751,19.935
'0:03.941',133.855,1078.393,62.471,141.171,-119.822,1.641,-12.216,0.803,1.608,-12.214,0.73,-0.386,0.28,-0.751,19.939
'0:03.945',123.334,1067.398,63.178,142.781,-120.136,1.593,-12.13,0.864,1.569,-12.153,0.846,-0.37,0.294,-0.72,19.943
'0:03.949',122.54,1064.458,64.463,144.514,-120.213,1.508,-12.055,0.9,1.54,-12.085,0.827,-0.394,0.305,-0.705,19.946
'0:03.953',85.057,1065.95,65.551,144.974,-120.496,1.448,-12.03,0.912,1.377,-12.11,0.873,-0.393,0.326,-0.685,19.95
'0:03.957',66.994,1065.95,66.808,145.587,-120.91,1.325,-12.003,0.886,1.367,-12.062,0.854,-0.379,0.326,-0.693,19.954
'0:03.961',38.41,1029.301,67.796,145.986,-120.826,1.24,-11.965,0.874,1.204,-11.982,0.852,-0.386,0.33,-0.699,19.958
'0:03.965',26.268,1027.853,69.082,145.219,-120.895,1.166,-11.988,0.86,1.127,-12.009,0.84,-0.391,0.351,-0.687,19.962
'0:03.969',9.032,1052.015,71.37,142.628,-120.78,1.105,-11.975,0.836,1.06,-11.999,0.8,-0.391,0.351,-0.687,19.966
'0:03.973',-27.095,1097.441,72.902,140.22,-120.558,1.057,-11.938,0.848,1.021,-11.95,0.829,-0.401,0.355,-0.68,19.97
'0:03.977',-28.981,1104.047,74.18,137.23,-120.259,0.997,-11.828,0.873,0.993,-11.902,0.761,-0.412,0.371,-0.67,19.974
'0:03.980',-43.273,1113.55,75.31,134.056,-119.96,0.925,-11.657,0.911,0.906,-11.792,0.868,-0.415,0.385,-0.632,19.978
'0:03.984',21.438,1118.663,76.567,130.223,-119.722,0.84,-11.559,0.9,0.829,-11.664,0.867,-0.41,0.399,-0.624,19.982
'0:03.988',112.02,1197.798,77.923,126.375,-119.032,0.817,-11.438,0.914,0.762,-11.499,0.819,-0.415,0.406,-0.649,19.986
'0:03.992',171.867,1197.798,79.067,121.867,-118.526,0.793,-11.39,0.902,0.733,-11.362,0.829,-0.415,0.406,-0.605,19.989
'0:03.996',208.788,1270.327,80.332,116.883,-118.097,0.806,-11.294,0.892,0.743,-11.314,0.83,-0.417,0.415,-0.605,19.993
'0:04.000',172.132,1268.878,81.165,111.517,-117.745,0.783,-11.185,0.882,0.685,-11.225,0.839,-0.414,0.424,-0.622,19.997
'0:04.004',67.788,1338.467,82.344,105.859,-117.223,0.772,-11.053,0.872,0.704,-11.138,0.83,-0.396,0.429,-0.603,20.001
'0:04.008',-16.31,1403.667,83.269,100.293,-116.426,0.737,-10.908,0.85,0.647,-10.934,0.821,-0.41,0.436,-0.616,20.005
'0:04.012',-107.984,1441.764,83.884,94.712,-116.204,0.739,-10.717,0.829,0.647,-10.75,0.774,-0.415,0.45,-0.57,20.009
'0:04.016',-114.997,1504.747,84.343,89.683,-115.414,0.729,-10.537,0.784,0.618,-10.642,0.842,-0.414,0.47,-0.572,20.013
'0:04.020',-127.37,1563.384,84.449,82.89,-114.817,0.731,-10.381,0.786,0.609,-10.478,0.756,-0.414,0.47,-0.572,20.017
'0:04.023',-149.205,1594.152,84.505,77.401,-114.142,0.757,-10.226,0.753,0.552,-10.351,0.746,-0.414,0.466,-0.555,20.021
'0:04.027',-192.908,1617.589,84.322,71.758,-113.536,0.808,-10.095,0.757,0.668,-10.169,0.75,-0.422,0.488,-0.53,20.025
'0:04.031',-246.536,1708.443,84.279,66.883,-113.038,0.869,-10.012,0.758,0.678,-10.101,0.731,-0.408,0.489,-0.555,20.029
'0:04.035',-271.349,1729.665,83.82,61.792,-112.463,0.932,-9.905,0.761,0.774,-9.958,0.665,-0.422,0.493,-0.53,20.032
'0:04.039',-288.883,1762.648,83.262,57.33,-111.735,1.007,-9.822,0.8,0.88,-9.843,0.678,-0.419,0.495,-0.522,20.036
