'Elapsed time','chest_ecg','wrist_ppg','wrist_gyro_x','wrist_gyro_y','wrist_gyro_z','wrist_low_noise_accelerometer_x','wrist_low_noise_accelerometer_y','wrist_low_noise_accelerometer_z','wrist_wide_range_accelerometer_x','wrist_wide_range_accelerometer_y','wrist_wide_range_accelerometer_z','wrist_mag_x','wrist_mag_y','wrist_mag_z','sample_times_for_all_signals_apart_from_ecg'
'0:00.000',-102.59,1133.339,-18.411,66.839,-48.372,3.381,-10.87,2.932,3.353,-10.872,2.889,-0.498,0.263,-0.643,39.997
'0:00.004',-97.458,1135.529,-17.475,64.391,-48.333,3.319,-10.917,2.883,3.314,-10.909,2.966,-0.499,0.266,-0.628,40.001
'0:00.008',-109.595,1142.133,-16.161,61.859,-48.216,3.234,-10.916,2.857,3.161,-10.908,2.885,-0.499,0.266,-0.628,40.005
'0:00.012',-111.746,1146.512,-14.853,59.84,-48.194,3.21,-10.879,2.857,3.122,-10.948,2.806,-0.499,0.263,-0.653,40.008
'0:00.016',-117.133,1147.995,-13.475,57.492,-48.176,3.136,-10.842,2.857,3.161,-10.831,2.846,-0.51,0.264,-0.611,40.012
'0:00.020',-118.496,1163.357,-12.036,55.212,-48.459,3.125,-10.78,2.906,3.044,-10.787,3.002,-0.51,0.284,-0.618,40.016
'0:00.023',-98.8,1170.702,-10.878,52.619,-48.894,3.089,-10.743,2.919,3.045,-10.71,2.963,-0.501,0.278,-0.599,40.02
'0:00.027',-110.404,1174.375,-9.344,50.11,-49.212,3.089,-10.682,2.956,3.045,-10.673,2.924,-0.505,0.275,-0.634,40.024
'0:00.031',-64.028,1179.495,-8.236,47.731,-49.425,3.04,-10.669,2.956,3.045,-10.672,2.963,-0.498,0.284,-0.597,40.028
'0:00.035',23.039,1166.288,-6.833,45.169,-49.525,3.004,-10.597,2.944,3.006,-10.593,2.963,-0.498,0.284,-0.597,40.032
'0:00.039',82.085,1225.651,-5.808,42.79,-49.342,2.957,-10.475,2.946,2.891,-10.474,3.001,-0.501,0.289,-0.653,40.036
'0:00.043',137.361,1233.702,-4.561,39.921,-49.164,2.884,-10.353,2.947,2.891,-10.397,3.002,-0.512,0.275,-0.605,40.04
'0:00.047',164.595,1212.443,-3.682,37.718,-49.242,2.825,-10.196,2.937,2.738,-10.203,2.845,-0.51,0.289,-0.574,40.044
'0:00.051',120.646,1238.081,-2.785,35.47,-49.703,2.753,-10.026,2.951,2.699,-10.044,3.002,-0.498,0.294,-0.557,40.048
'0:00.055',21.165,1240.306,-1.486,33.534,-49.534,2.694,-9.869,2.917,2.584,-9.85,2.884,-0.508,0.298,-0.62,40.051
'0:00.059',-125.757,1299.634,-0.465,32.02,-49.847,2.671,-9.724,2.907,2.547,-9.734,2.806,-0.508,0.298,-0.62,40.055
'0:00.063',-236.033,1273.996,0.554,30.635,-49.99,2.648,-9.58,2.897,2.508,-9.616,2.845,-0.526,0.287,-0.59,40.059
'0:00.066',-330.383,1320.893,1.184,29.021,-50.243,2.625,-9.435,2.887,2.585,-9.423,2.887,-0.506,0.305,-0.605,40.063
'0:00.070',-288.861,1353.841,1.925,27.698,-50.364,2.614,-9.315,2.865,2.547,-9.384,2.809,-0.52,0.286,-0.605,40.067
'0:00.074',-221.469,1358.962,2.237,26.398,-50.564,2.616,-9.195,2.879,2.548,-9.152,2.772,-0.519,0.303,-0.572,40.071
'0:00.078',-252.216,1383.152,2.963,25.388,-50.508,2.605,-9.062,2.882,2.586,-9.114,2.772,-0.533,0.298,-0.572,40.075
'0:00.082',-251.407,1392.687,3.007,24.676,-50.356,2.594,-8.977,2.907,2.47,-8.955,2.85,-0.522,0.307,-0.578,40.079
'0:00.086',-211.759,1430.756,3.421,24.118,-50.116,2.57,-8.88,2.921,2.587,-8.921,2.735,-0.522,0.307,-0.578,40.083
'0:00.090',-192.085,1438.101,3.638,23.912,-49.825,2.571,-8.772,2.947,2.431,-8.759,2.929,-0.527,0.298,-0.59,40.087
'0:00.094',-159.187,1441.739,3.848,23.858,-48.994,2.572,-8.688,2.948,2.508,-8.722,2.892,-0.51,0.31,-0.549,40.09
'0:00.098',-140.598,1458.619,3.841,24.225,-48.624,2.536,-8.591,2.938,2.47,-8.644,2.892,-0.526,0.305,-0.601,40.094
'0:00.102',-123.074,1468.118,3.813,24.516,-47.942,2.501,-8.482,2.939,2.432,-8.488,2.892,-0.534,0.31,-0.551,40.098
'0:00.105',-113.087,1469.602,3.72,24.722,-47.663,2.477,-8.385,2.941,2.355,-8.41,2.852,-0.541,0.312,-0.561,40.102
'0:00.109',-122.797,1491.567,3.513,24.715,-46.972,2.442,-8.312,2.929,2.433,-8.373,2.776,-0.526,0.317,-0.545,40.106
'0:00.113',-137.894,1515.016,3.259,24.608,-46.315,2.418,-8.252,2.93,2.315,-8.288,3.087,-0.526,0.317,-0.545,40.11
'0:00.117',-123.351,1550.189,3.113,24.952,-45.719,2.37,-8.167,2.919,2.278,-8.213,2.931,-0.533,0.316,-0.572,40.114
'0:00.121',-110.128,1525.998,2.899,24.937,-44.632,2.333,-8.13,2.895,2.279,-8.138,2.775,-0.527,0.319,-0.538,40.118
'0:00.125',-114.706,1573.637,2.635,25.174,-43.944,2.322,-8.07,2.896,2.202,-8.096,2.852,-0.529,0.323,-0.588,40.122
'0:00.129',-104.208,1531.119,2.307,25.181,-42.883,2.322,-8.01,2.873,2.164,-8.019,2.813,-0.545,0.317,-0.545,40.126
'0:00.133',-118.496,1584.62,1.941,25.097,-41.939,2.311,-7.974,2.873,2.24,-7.941,2.893,-0.538,0.323,-0.53,40.13
'0:00.137',-122.265,1538.464,1.531,24.929,-40.713,2.311,-7.926,2.862,2.24,-7.942,2.815,-0.538,0.323,-0.53,40.133
'0:00.141',-110.937,1565.55,1.193,24.875,-39.873,2.287,-7.865,2.862,2.203,-7.865,2.776,-0.533,0.316,-0.584,40.137
'0:00.145',-100.418,1535.533,0.773,24.738,-38.572,2.288,-7.841,2.887,2.279,-7.865,2.855,-0.51,0.307,-0.607,40.141
'0:00.148',-103.655,1575.085,0.191,25.067,-37.32,2.276,-7.817,2.888,2.164,-7.785,2.854,-0.519,0.319,-0.597,40.145
'0:00.152',-99.886,1527.482,-0.127,25.082,-35.85,2.288,-7.792,2.924,2.279,-7.788,2.817,-0.524,0.333,-0.572,40.149
'0:00.156',-104.74,1544.326,-0.414,25.51,-34.453,2.276,-7.78,2.937,2.124,-7.822,2.892,-0.546,0.316,-0.545,40.153
'0:00.160',-95.84,1512.826,-0.296,25.64,-32.957,2.276,-7.744,2.937,2.125,-7.707,2.815,-0.534,0.332,-0.515,40.157
'0:00.164',-85.321,1529.671,-0.468,25.885,-31.713,2.289,-7.732,2.937,2.202,-7.708,2.855,-0.534,0.332,-0.515,40.161
'0:00.168',-86.684,1537.723,-0.649,26.405,-30.386,2.301,-7.696,2.938,2.201,-7.706,2.933,-0.552,0.333,-0.515,40.165
'0:00.172',-97.181,1491.567,-0.996,26.275,-28.942,2.326,-7.673,2.915,2.086,-7.705,2.893,-0.536,0.332,-0.542,40.169
'0:00.176',-102.59,1531.86,-1.171,26.489,-27.572,2.314,-7.686,2.878,2.24,-7.67,2.856,-0.545,0.33,-0.528,40.173
'0:00.180',-96.372,1478.395,-1.228,26.352,-25.924,2.326,-7.663,2.83,2.242,-7.673,2.7,-0.522,0.339,-0.511,40.176
'0:00.184',-71.843,1516.499,-1.655,26.084,-24.497,2.302,-7.675,2.793,2.242,-7.711,2.7,-0.54,0.33,-0.532,40.18
'0:00.188',-71.843,1496.688,-1.623,25.579,-23.01,2.302,-7.651,2.77,2.165,-7.712,2.62,-0.54,0.33,-0.532,40.184
'0:00.191',-79.125,1469.602,-1.792,25.059,-21.461,2.277,-7.663,2.745,2.203,-7.751,2.66,-0.55,0.33,-0.505,40.188
'0:00.195',-68.074,1455.688,-2.069,24.065,-19.843,2.253,-7.663,2.733,2.204,-7.712,2.621,-0.534,0.34,-0.53,40.192
'0:00.199',-79.934,1438.843,-2.139,22.94,-18.255,2.241,-7.651,2.72,2.165,-7.672,2.66,-0.529,0.344,-0.492,40.196
'0:00.203',-72.12,1416.1,-2.05,21.456,-16.82,2.216,-7.663,2.696,2.165,-7.673,2.621,-0.543,0.33,-0.534,40.2
'0:00.207',-71.31,1424.894,-2.005,20.026,-15.102,2.216,-7.663,2.696,2.127,-7.673,2.581,-0.536,0.337,-0.499,40.204
'0:00.211',-62.41,1417.584,-2.158,18.083,-13.667,2.204,-7.675,2.671,2.165,-7.634,2.621,-0.527,0.348,-0.555,40.208
'0:00.215',-68.074,1397.066,-2.158,15.956,-12.162,2.204,-7.687,2.671,2.126,-7.669,2.776,-0.527,0.348,-0.555,40.212
'0:00.219',-64.028,1393.393,-1.9,13.455,-10.474,2.191,-7.723,2.634,2.127,-7.712,2.581,-0.543,0.339,-0.511,40.215
'0:00.223',-56.214,1397.066,-1.922,10.571,-8.999,2.191,-7.747,2.658,2.127,-7.827,2.658,-0.54,0.348,-0.515,40.219
'0:00.227',-39.499,1396.324,-1.712,8.055,-7.238,2.227,-7.772,2.67,2.127,-7.75,2.62,-0.533,0.346,-0.486,40.223
'0:00.230',-45.972,1391.204,-1.744,4.995,-5.842,2.276,-7.82,2.706,2.126,-7.865,2.697,-0.533,0.349,-0.534,40.227
'0:00.234',-34.921,1336.255,-1.483,2.44,-4.471,2.349,-7.881,2.73,2.28,-7.829,2.7,-0.541,0.342,-0.503,40.231
'0:00.238',-16.587,1341.376,-1.461,-0.229,-3.04,2.396,-7.979,2.729,2.28,-8.062,2.658,-0.526,0.353,-0.557,40.235
'0:00.242',-9.837,1343.6,-1.038,-2.83,-1.553,2.433,-8.028,2.716,2.318,-8.062,2.737,-0.526,0.353,-0.557,40.239
'0:00.246',-22.507,1336.255,-0.691,-5.729,0.161,2.42,-8.1,2.679,2.319,-8.182,2.541,-0.541,0.333,-0.526,40.243
'0:00.250',-26.297,1345.79,-0.582,-8.208,1.809,2.419,-8.113,2.63,2.28,-8.141,2.619,-0.534,0.353,-0.49,40.247
'0:00.254',-1.746,1343.6,-0.547,-10.732,3.297,2.444,-8.102,2.631,2.357,-8.18,2.698,-0.519,0.351,-0.469,40.251
'0:00.258',12.265,1327.462,-0.296,-13.409,4.589,2.456,-8.151,2.594,2.281,-8.181,2.54,-0.529,0.349,-0.526,40.255
'0:00.262',34.644,1280.6,-0.032,-15.849,5.568,2.505,-8.14,2.582,2.396,-8.223,2.503,-0.54,0.34,-0.513,40.258
'0:00.266',56.746,1275.444,0.487,-18.098,6.768,2.578,-8.214,2.582,2.473,-8.224,2.543,-0.54,0.34,-0.513,40.262
'0:00.270',24.402,1295.961,0.652,-20.531,7.573,2.651,-8.263,2.606,2.55,-8.263,2.545,-0.522,0.349,-0.505,40.266
'0:00.273',4.173,1316.479,0.691,-22.932,8.799,2.699,-8.337,2.606,2.704,-8.421,2.546,-0.536,0.332,-0.536,40.27
'0:00.277',-15.225,1312.1,1.286,-25.067,9.782,2.748,-8.35,2.606,2.627,-8.382,2.506,-0.541,0.342,-0.505,40.274
'0:00.281',-44.886,1282.048,1.4,-27.101,10.804,2.784,-8.387,2.594,2.704,-8.461,2.506,-0.548,0.344,-0.507,40.278
'0:00.285',-40.84,1320.893,1.792,-29.136,11.896,2.833,-8.424,2.618,2.742,-8.383,2.547,-0.533,0.344,-0.492,40.282
'0:00.289',-10.923,1285.72,1.948,-30.826,12.744,2.893,-8.46,2.655,2.819,-8.539,2.586,-0.541,0.333,-0.534,40.286
'0:00.293',-0.681,1266.651,2.848,-33.58,14.171,2.918,-8.484,2.691,2.856,-8.499,2.704,-0.541,0.333,-0.534,40.29
'0:00.297',-0.937,1298.151,3.16,-34.674,15.063,2.966,-8.533,2.715,2.895,-8.537,2.744,-0.52,0.339,-0.509,40.294
'0:00.301',20.079,1315.031,3.631,-35.829,15.741,2.99,-8.593,2.726,2.933,-8.654,2.782,-0.533,0.332,-0.557,40.298
'0:00.305',23.593,1312.1,4.268,-36.456,15.95,3.014,-8.63,2.738,2.934,-8.695,2.665,-0.543,0.33,-0.513,40.301
'0:00.309',52.7,1290.099,4.344,-37.145,16.433,3.025,-8.69,2.725,2.971,-8.693,2.782,-0.54,0.335,-0.522,40.305
'0:00.313',47.59,1267.392,4.834,-37.787,16.933,3.074,-8.715,2.737,2.971,-8.692,2.822,-0.529,0.332,-0.496,40.309
'0:00.316',48.122,1276.185,5.394,-38.185,17.124,3.111,-8.716,2.75,3.088,-8.737,2.628,-0.529,0.332,-0.496,40.313
'0:00.320',68.606,1324.531,5.662,-38.736,17.673,3.136,-8.717,2.738,3.125,-8.697,2.707,-0.534,0.326,-0.545,40.317
'0:00.324',86.407,1295.961,6.209,-38.927,17.616,3.173,-8.682,2.715,3.088,-8.776,2.628,-0.545,0.323,-0.507,40.321
'0:00.328',99.353,1290.841,6.489,-38.843,17.929,3.172,-8.706,2.726,3.088,-8.697,2.667,-0.527,0.328,-0.568,40.325
'0:00.332',96.117,1306.238,6.868,-38.72,17.977,3.185,-8.694,2.715,3.164,-8.698,2.708,-0.54,0.316,-0.542,40.329
'0:00.336',82.085,1343.6,7.317,-38.621,18.129,3.173,-8.645,2.74,3.087,-8.736,2.667,-0.54,0.326,-0.507,40.333
'0:00.340',70.757,1302.565,7.663,-38.093,18.155,3.197,-8.646,2.74,3.126,-8.737,2.668,-0.529,0.325,-0.58,40.337
'0:00.344',55.66,1301.824,8.144,-37.673,18.242,3.198,-8.634,2.753,3.126,-8.62,2.668,-0.529,0.325,-0.58,40.34
'0:00.348',51.359,1325.272,8.526,-37.16,18.107,3.222,-8.61,2.765,3.087,-8.618,2.785,-0.545,0.31,-0.547,40.344
'0:00.352',47.036,1314.29,8.93,-36.632,18.342,3.211,-8.561,2.778,3.164,-8.621,2.669,-0.536,0.319,-0.528,40.348
'0:00.355',32.493,1335.513,8.968,-36.104,18.382,3.223,-8.549,2.791,3.164,-8.658,2.747,-0.545,0.321,-0.522,40.352
'0:00.359',22.23,1333.324,9.592,-35.447,18.308,3.235,-8.55,2.779,3.164,-8.659,2.708,-0.533,0.321,-0.551,40.356
'0:00.363',39.222,1347.238,9.802,-34.995,18.455,3.247,-8.562,2.803,3.164,-8.542,2.748,-0.543,0.31,-0.549,40.36
'0:00.367',18.461,1368.497,10.175,-34.238,18.677,3.283,-8.623,2.79,3.241,-8.661,2.67,-0.543,0.307,-0.565,40.364
'0:00.371',14.969,1396.324,10.114,-33.963,18.912,3.307,-8.683,2.802,3.202,-8.697,2.786,-0.526,0.307,-0.565,40.368
'0:00.375',1.214,1399.256,10.337,-33.358,19.243,3.319,-8.72,2.801,3.24,-8.775,2.786,-0.519,0.305,-0.601,40.372
'0:00.379',5.792,1378.032,10.181,-33.366,19.63,3.343,-8.732,2.789,3.24,-8.736,2.826,-0.515,0.3,-0.603,40.376
'0:00.383',6.069,1376.549,10.27,-33.129,20.435,3.342,-8.817,2.763,3.357,-8.897,2.631,-0.52,0.314,-0.511,40.38
'0:00.387',2.023,1376.549,9.999,-33.312,20.996,3.354,-8.842,2.739,3.204,-8.935,2.511,-0.536,0.3,-0.57,40.383
'0:00.391',-0.937,1421.963,9.901,-33.519,21.779,3.354,-8.926,2.725,3.241,-9.012,2.628,-0.552,0.307,-0.522,40.387
'0:00.395',16.587,1413.911,9.646,-34.23,22.631,3.341,-8.986,2.7,3.28,-9.052,2.59,-0.552,0.307,-0.522,40.391
'0:00.398',4.45,1417.584,9.325,-34.751,23.527,3.352,-9.095,2.674,3.242,-9.053,2.511,-0.55,0.312,-0.54,40.395
'0:00.402',-9.028,1378.032,8.94,-35.477,24.454,3.339,-9.143,2.673,3.242,-9.13,2.549,-0.538,0.303,-0.536,40.399
'0:00.406',-42.458,1399.997,8.777,-36.25,25.598,3.338,-9.252,2.659,3.28,-9.364,2.509,-0.538,0.298,-0.561,40.403
'0:00.410',-61.601,1402.928,8.125,-37.275,26.794,3.349,-9.336,2.645,3.203,-9.361,2.586,-0.546,0.302,-0.53,40.407
'0:00.414',-48.399,1372.17,7.67,-38.59,27.746,3.361,-9.373,2.644,3.242,-9.442,2.469,-0.533,0.302,-0.588,40.411
'0:00.418',-47.845,1362.635,7.234,-39.837,28.803,3.372,-9.458,2.607,3.28,-9.48,2.547,-0.543,0.294,-0.563,40.415
'0:00.422',-44.077,1361.893,6.642,-41.344,30.391,3.384,-9.506,2.618,3.357,-9.519,2.587,-0.543,0.294,-0.563,40.419
'0:00.426',-42.203,1357.514,5.617,-43.081,31.235,3.408,-9.603,2.605,3.357,-9.558,2.587,-0.541,0.303,-0.534,40.423
'0:00.430',-28.98,1353.841,4.85,-44.473,32.5,3.468,-9.688,2.604,3.433,-9.754,2.547,-0.541,0.298,-0.526,40.426
'0:00.434',-16.843,1335.513,3.994,-46.163,33.958,3.466,-9.821,2.59,3.433,-9.871,2.547,-0.533,0.296,-0.572,40.43
'0:00.438',-16.31,1338.444,2.801,-47.907,35.232,3.538,-9.942,2.589,3.472,-9.988,2.546,-0.548,0.286,-0.561,40.434
'0:00.441',-11.732,1312.1,1.75,-49.498,36.598,3.623,-10.077,2.587,3.511,-10.184,2.506,-0.527,0.289,-0.553,40.438
'0:00.445',-9.028,1271.807,0.551,-51.258,37.85,3.67,-10.21,2.585,3.587,-10.222,2.586,-0.527,0.289,-0.553,40.442
'0:00.449',-27.085,1301.082,-0.748,-52.872,39.286,3.718,-10.331,2.596,3.626,-10.342,2.429,-0.54,0.278,-0.578,40.446
'0:00.453',-30.875,1294.514,-2.123,-54.623,40.882,3.766,-10.429,2.583,3.625,-10.416,2.624,-0.534,0.282,-0.557,40.45
'0:00.457',-31.94,1246.875,-3.619,-56.329,42.444,3.765,-10.476,2.606,3.702,-10.497,2.546,-0.545,0.286,-0.563,40.454
'0:00.461',-29.257,1243.944,-4.907,-58.058,43.94,3.79,-10.488,2.631,3.702,-10.497,2.546,-0.536,0.282,-0.593,40.458
'0:00.465',-26.297,1271.807,-6.158,-59.259,45.541,3.814,-10.464,2.68,3.74,-10.535,2.586,-0.541,0.271,-0.599,40.462
'0:00.469',-42.458,1264.461,-7.46,-60.651,46.711,3.791,-10.403,2.705,3.701,-10.456,2.664,-0.522,0.27,-0.57,40.465
'0:00.473',-45.163,1241.013,-8.647,-61.699,48.068,3.779,-10.294,2.706,3.701,-10.377,2.703,-0.522,0.27,-0.57,40.469
'0:00.477',-31.94,1211.737,-10.006,-62.64,49.325,3.781,-10.138,2.733,3.778,-10.146,2.667,-0.515,0.264,-0.599,40.473
'0:00.480',-31.13,1243.944,-11.05,-63.389,50.06,3.771,-9.957,2.749,3.701,-9.87,2.825,-0.531,0.259,-0.59,40.477
'0:00.484',-27.638,1248.358,-12.94,-63.741,51.16,3.785,-9.777,2.764,3.702,-9.874,2.629,-0.515,0.25,-0.618,40.481
'0:00.488',-25.743,1219.789,-13.876,-63.405,51.482,3.788,-9.56,2.793,3.74,-9.562,2.711,-0.51,0.243,-0.655,40.485
'0:00.492',-27.894,1232.961,-14.789,-63.206,51.765,3.79,-9.355,2.845,3.74,-9.444,2.79,-0.508,0.241,-0.666,40.489
'0:00.496',-15.501,1280.6,-16.024,-65.302,52.543,3.744,-9.041,2.837,3.625,-9.055,2.752,-0.508,0.238,-0.649,40.493
'0:00.500',-15.778,1279.117,-16.941,-65.279,53.531,3.696,-8.931,2.911,3.587,-8.898,2.792,-0.519,0.238,-0.649,40.497
'0:00.504',-11.988,1309.875,-16.762,-62.188,52.135,3.734,-8.848,2.877,3.778,-8.861,2.834,-0.527,0.238,-0.651,40.501
'0:00.508',-24.679,1331.134,-16.953,-60.597,51.347,3.835,-8.573,2.944,3.817,-8.512,2.877,-0.508,0.222,-0.672,40.505
'0:00.512',-41.394,1334.807,-18.261,-59.236,51.321,3.898,-8.428,3.032,3.816,-8.469,3.072,-0.508,0.234,-0.588,40.508
'0:00.516',-60.792,1417.584,-18.389,-53.246,50.604,4.069,-8.457,3.01,4.163,-8.594,2.96,-0.517,0.22,-0.632,40.512
'0:00.520',-63.219,1404.376,-17.835,-45.674,48.716,4.193,-8.327,3.014,4.201,-8.478,2.962,-0.517,0.22,-0.634,40.516
'0:00.523',-62.133,1493.756,-19.27,-44.955,48.094,3.924,-8.223,3.109,3.74,-8.159,2.956,-0.517,0.22,-0.634,40.52
'0:00.527',-43.544,1489.377,-22.262,-49.46,50.464,3.755,-8.027,3.11,3.624,-8.079,2.994,-0.513,0.216,-0.67,40.524
'0:00.531',-27.638,1556.051,-22.109,-46.27,51.943,3.471,-8.225,3.079,3.468,-8.305,3.224,-0.505,0.215,-0.68,40.528
'0:00.535',-13.883,1562.619,-20.343,-42.958,49.386,3.559,-7.999,3.059,3.623,-7.961,3.073,-0.524,0.206,-0.653,40.532
'0:00.539',-14.415,1599.275,-19.795,-39.118,48.063,3.831,-7.748,3.322,3.853,-7.767,3.273,-0.501,0.209,-0.624,40.536
'0:00.543',-27.638,1630.034,-19.977,-34.215,46.345,3.854,-7.892,3.368,3.931,-7.965,3.156,-0.508,0.202,-0.678,40.54
'0:00.547',-55.937,1664.465,-21.281,-33.32,44.514,4.062,-7.971,3.26,3.968,-8.001,3.313,-0.498,0.201,-0.659,40.544
'0:00.551',-56.746,1702.569,-20.257,-26.321,45.323,4.086,-7.959,3.285,4.007,-8.002,3.313,-0.498,0.201,-0.659,40.548
'0:00.555',-62.133,1760.449,-20.489,-22.099,45.41,4.013,-7.908,3.322,3.968,-7.961,3.391,-0.498,0.197,-0.672,40.551
'0:00.559',-49.208,1753.104,-21.374,-18.809,45.267,3.804,-8.048,3.304,3.699,-8.114,3.268,-0.496,0.193,-0.693,40.555
'0:00.563',-46.227,1818.329,-21.641,-16.584,44.536,3.73,-8.037,3.194,3.661,-8.115,3.189,-0.505,0.19,-0.685,40.559
'0:00.566',-25.488,1797.812,-21.161,-13.417,45.084,3.632,-8.081,3.265,3.622,-8.113,3.228,-0.513,0.19,-0.643,40.563
'0:00.570',-24.934,1810.243,-20.814,-9.607,44.484,3.644,-8.105,3.301,3.66,-8.035,3.307,-0.496,0.201,-0.708,40.567
'0:00.574',-43.8,1827.829,-20.362,-7.053,43.466,3.667,-8.237,3.335,3.583,-8.266,3.343,-0.496,0.201,-0.708,40.571
'0:00.578',-45.972,1827.087,-20.709,-4.574,43.1,3.665,-8.357,3.333,3.659,-8.266,3.383,-0.494,0.183,-0.682,40.575
'0:00.582',-30.066,1827.087,-20.273,-2.463,42.7,3.64,-8.417,3.331,3.544,-8.421,3.341,-0.482,0.19,-0.691,40.579
'0:00.586',-12.542,1824.898,-19.891,-0.711,42.696,3.628,-8.44,3.355,3.582,-8.498,3.38,-0.478,0.185,-0.659,40.583
'0:00.590',-26.297,1815.398,-19.429,1.101,42.913,3.567,-8.413,3.403,3.505,-8.418,3.458,-0.487,0.19,-0.716,40.587
'0:00.594',-25.488,1801.449,-18.86,1.568,43.009,3.53,-8.46,3.426,3.504,-8.495,3.496,-0.498,0.181,-0.676,40.59
'0:00.598',-27.638,1789.019,-18.529,2.899,42.531,3.443,-8.53,3.448,3.351,-8.61,3.415,-0.496,0.186,-0.678,40.594
'0:00.602',-29.789,1775.105,-17.825,2.899,42.357,3.406,-8.578,3.422,3.313,-8.612,3.297,-0.496,0.186,-0.678,40.598
'0:00.605',-59.982,1767.018,-16.781,4.421,41.991,3.32,-8.612,3.396,3.312,-8.647,3.453,-0.477,0.186,-0.662,40.602
'0:00.609',-25.743,1761.897,-15.954,4.085,41.522,3.307,-8.6,3.396,3.159,-8.726,3.293,-0.475,0.179,-0.697,40.606
'0:00.613',3.364,1724.535,-14.684,4.735,40.721,3.197,-8.671,3.296,3.236,-8.649,3.334,-0.478,0.181,-0.672,40.61
'0:00.617',62.41,1700.38,-13.873,3.167,39.999,3.073,-8.741,3.257,3.044,-8.803,3.213,-0.466,0.185,-0.737,40.614
'0:00.621',78.593,1655.672,-13.376,0.398,39.421,3.024,-8.766,3.147,3.045,-8.765,3.174,-0.48,0.174,-0.712,40.618
'0:00.625',54.851,1638.827,-11.553,-1.354,38.825,3.049,-8.731,3.124,3.007,-8.765,3.134,-0.48,0.178,-0.689,40.622
'0:00.629',-0.937,1634.413,-10.155,-1.775,38.077,3.012,-8.754,3.147,2.929,-8.801,3.21,-0.477,0.178,-0.689,40.626
'0:00.633',-50.55,1577.275,-9.067,-3.809,36.646,2.974,-8.851,3.072,2.969,-8.844,3.015,-0.475,0.181,-0.705,40.63
'0:00.637',-77.507,1566.292,-8.485,-6.877,35.158,2.913,-8.886,3.059,2.892,-8.961,2.935,-0.466,0.181,-0.724,40.633
'0:00.641',-53.786,1570.706,-7.068,-9.776,34.793,2.852,-8.872,3.082,2.815,-8.996,3.051,-0.478,0.174,-0.703,40.637
'0:00.645',-50.017,1510.637,-5.458,-12.277,34.045,2.828,-8.81,3.119,2.892,-8.803,3.093,-0.45,0.181,-0.691,40.641
'0:00.648',-7.687,1490.119,-3.844,-14.809,33.196,2.803,-8.81,3.131,2.814,-8.917,3.129,-0.461,0.165,-0.716,40.645
'0:00.652',41.926,1493.756,-2.661,-17.463,31.326,2.828,-8.823,3.107,2.814,-8.916,3.169,-0.461,0.165,-0.716,40.649
'0:00.656',19.015,1440.291,-1.076,-20.401,30.008,2.802,-8.906,3.141,2.622,-8.875,3.126,-0.466,0.169,-0.695,40.653
'0:00.660',-30.875,1445.411,0.029,-23.154,28.864,2.864,-8.896,3.106,2.814,-8.918,3.091,-0.475,0.174,-0.708,40.657
'0:00.664',-88.302,1392.687,1.143,-25.472,28.081,2.937,-8.909,3.143,2.853,-8.958,3.052,-0.456,0.178,-0.695,40.661
'0:00.668',-99.353,1396.324,2.747,-26.107,26.728,2.998,-8.947,3.107,3.007,-9,3.015,-0.466,0.163,-0.731,40.665
'0:00.672',-89.367,1392.687,3.513,-28.455,25.241,3.021,-9.079,3.141,3.046,-9.116,3.054,-0.438,0.169,-0.701,40.669
'0:00.676',-67.797,1358.256,4.086,-30.612,24.206,3.094,-9.129,3.105,3.045,-9.116,3.093,-0.445,0.172,-0.756,40.673
'0:00.680',-37.348,1338.444,6.289,-31.683,22.614,3.155,-9.153,3.203,3.122,-9.234,3.093,-0.445,0.172,-0.756,40.676
'0:00.684',19.015,1306.944,6.48,-33.488,21.196,3.141,-9.261,3.2,3.084,-9.311,3.053,-0.461,0.163,-0.714,40.68
'0:00.688',57.832,1295.961,6.871,-34.108,20.482,3.227,-9.299,3.189,3.161,-9.312,3.093,-0.457,0.172,-0.718,40.684
'0:00.691',41.117,1318.669,7.835,-33.932,19.799,3.201,-9.429,3.258,3.197,-9.426,3.249,-0.442,0.165,-0.699,40.688
'0:00.695',-10.391,1326.014,7.667,-34.031,18.76,3.261,-9.515,3.234,3.275,-9.583,3.21,-0.445,0.16,-0.735,40.692
'0:00.699',-28.171,1316.479,8.373,-33.465,18.408,3.309,-9.564,3.246,3.198,-9.661,3.169,-0.459,0.163,-0.71,40.696
'0:00.703',2.832,1298.151,8.952,-33.006,17.416,3.308,-9.66,3.268,3.312,-9.776,3.327,-0.459,0.163,-0.71,40.7
'0:00.707',18.461,1296.703,9.089,-31.278,16.777,3.393,-9.71,3.268,3.391,-9.781,3.132,-0.442,0.162,-0.77,40.704
'0:00.711',4.983,1281.306,9.248,-29.947,15.741,3.417,-9.759,3.244,3.466,-9.741,3.29,-0.459,0.154,-0.741,40.708
'0:00.715',-23.06,1258.599,9.385,-28.34,14.723,3.429,-9.784,3.231,3.351,-9.819,3.17,-0.447,0.158,-0.697,40.712
'0:00.719',-23.593,1233.702,9.213,-26.971,14.071,3.441,-9.809,3.195,3.39,-9.857,3.21,-0.445,0.151,-0.756,40.715
'0:00.723',-28.703,1220.495,9.328,-24.654,13.614,3.466,-9.821,3.219,3.467,-9.86,3.133,-0.445,0.163,-0.743,40.719
'0:00.727',-16.31,1238.823,9.36,-22.489,12.601,3.466,-9.808,3.231,3.391,-9.859,3.132,-0.456,0.151,-0.72,40.723
'0:00.730',-13.883,1214.633,9.048,-20.546,11.718,3.454,-9.82,3.219,3.39,-9.857,3.21,-0.456,0.151,-0.72,40.727
'0:00.734',-8.219,1209.512,8.892,-18.144,11.087,3.466,-9.821,3.231,3.391,-9.859,3.093,-0.428,0.158,-0.708,40.731
'0:00.738',-6.878,1204.392,8.898,-15.566,10.113,3.442,-9.784,3.219,3.391,-9.859,3.132,-0.447,0.144,-0.745,40.735
'0:00.742',4.173,1204.392,8.79,-13.325,9.734,3.405,-9.783,3.255,3.351,-9.779,3.21,-0.45,0.153,-0.716,40.739
'0:00.746',30.875,1201.461,8.402,-10.533,8.734,3.393,-9.747,3.219,3.351,-9.855,3.287,-0.457,0.158,-0.722,40.743
'0:00.750',47.59,1217.564,8.125,-8.062,8.169,3.345,-9.697,3.244,3.237,-9.74,3.13,-0.438,0.156,-0.749,40.747
'0:00.754',39.222,1261.53,7.972,-5.959,7.199,3.284,-9.635,3.268,3.237,-9.661,3.17,-0.438,0.151,-0.747,40.751
'0:00.758',43.8,1266.651,7.616,-3.978,6.498,3.223,-9.586,3.256,3.197,-9.581,3.248,-0.45,0.151,-0.747,40.755
'0:00.762',70.224,1276.927,7.247,-2.455,6.063,3.175,-9.524,3.293,3.043,-9.579,3.245,-0.426,0.151,-0.718,40.758
'0:00.766',31.13,1279.117,7.285,-0.398,5.398,3.139,-9.487,3.293,3.043,-9.462,3.285,-0.438,0.151,-0.76,40.762
'0:00.770',-28.448,1263.72,7.145,1.4,4.637,3.09,-9.413,3.342,3.005,-9.423,3.207,-0.45,0.156,-0.722,40.766
'0:00.773',-66.732,1265.944,7.132,3.511,3.902,3.042,-9.364,3.342,2.928,-9.421,3.284,-0.447,0.16,-0.724,40.77
'0:00.777',-82.361,1280.6,6.995,5.354,3.554,3.018,-9.303,3.355,3.044,-9.347,3.208,-0.433,0.162,-0.714,40.774
'0:00.781',-46.781,1294.514,6.75,7.251,3.097,3.006,-9.291,3.355,2.966,-9.344,3.285,-0.433,0.162,-0.714,40.778
'0:00.785',-25.211,1291.583,7.278,9.11,2.514,2.97,-9.23,3.331,2.968,-9.268,3.168,-0.445,0.153,-0.751,40.782
'0:00.789',-18.206,1306.238,7.068,10.762,2.479,2.933,-9.218,3.295,2.852,-9.227,3.206,-0.442,0.147,-0.76,40.786
'0:00.793',-2.832,1341.376,7.202,12.323,2.11,2.885,-9.181,3.283,2.891,-9.189,3.168,-0.436,0.167,-0.77,40.79
'0:00.797',31.684,1378.738,7.345,13.57,1.909,2.837,-9.121,3.235,2.814,-9.19,3.088,-0.449,0.151,-0.733,40.794
'0:00.801',111.469,1355.325,7.67,14.748,1.783,2.8,-9.085,3.187,2.738,-9.111,3.088,-0.44,0.163,-0.703,40.798
'0:00.805',176.988,1402.928,7.727,15.757,1.653,2.777,-9.013,3.163,2.699,-9.11,3.087,-0.456,0.163,-0.691,40.801
'0:00.809',216.891,1424.894,7.848,16.591,1.553,2.741,-8.953,3.127,2.622,-8.992,3.087,-0.456,0.163,-0.691,40.805
'0:00.813',269.463,1421.963,8.205,17.348,1.444,2.705,-8.88,3.104,2.738,-8.918,3.011,-0.436,0.165,-0.745,40.809
'0:00.816',245.466,1402.187,8.456,17.892,1.501,2.717,-8.844,3.105,2.622,-8.798,3.088,-0.449,0.162,-0.731,40.813
'0:00.820',155.95,1453.463,8.612,18.427,1.518,2.645,-8.77,3.105,2.469,-8.836,3.007,-0.429,0.172,-0.76,40.817
'0:00.824',17.396,1420.515,9,18.618,1.653,2.609,-8.686,3.082,2.545,-8.718,3.126,-0.442,0.158,-0.741,40.821
'0:00.828',-122.541,1430.756,9.414,18.611,1.762,2.573,-8.601,3.071,2.546,-8.682,3.01,-0.442,0.163,-0.714,40.825
'0:00.832',-192.361,1448.342,9.805,18.389,1.896,2.525,-8.528,3.048,2.43,-8.561,3.126,-0.442,0.163,-0.714,40.829
'0:00.836',-226.324,1450.532,10.124,17.815,2.057,2.476,-8.468,3.024,2.431,-8.486,2.97,-0.447,0.174,-0.726,40.833
'0:00.840',-162.977,1455.688,10.576,16.79,2.357,2.453,-8.395,3.012,2.354,-8.407,3.008,-0.424,0.167,-0.754,40.837
'0:00.844',-126.843,1486.446,10.926,15.75,2.423,2.441,-8.348,2.977,2.354,-8.369,2.931,-0.426,0.165,-0.749,40.84
'0:00.848',-116.068,1450.532,11.39,14.182,2.71,2.429,-8.323,2.977,2.354,-8.369,2.931,-0.421,0.174,-0.701,40.844
'0:00.852',-80.211,1487.188,11.584,12.545,2.814,2.417,-8.287,2.954,2.355,-8.332,2.853,-0.435,0.165,-0.764,40.848
'0:00.855',-46.504,1438.101,12.052,10.648,3.254,2.393,-8.276,2.917,2.316,-8.33,2.93,-0.452,0.17,-0.712,40.852
'0:00.859',-31.94,1452.015,12.043,8.888,3.484,2.381,-8.252,2.893,2.279,-8.253,2.852,-0.452,0.17,-0.712,40.856
'0:00.863',-12.797,1452.757,12.195,6.731,3.741,2.394,-8.228,2.881,2.356,-8.218,2.737,-0.419,0.17,-0.743,40.86
'0:00.867',-19.015,1453.463,12.288,4.284,3.832,2.394,-8.24,2.869,2.317,-8.293,2.853,-0.431,0.167,-0.764,40.864
'0:00.871',0.681,1479.136,12.571,2.448,4.28,2.418,-8.205,2.858,2.355,-8.215,2.893,-0.442,0.169,-0.724,40.868
'0:00.875',3.641,1477.653,12.488,-1.071,4.624,2.455,-8.218,2.859,2.278,-8.213,2.931,-0.442,0.181,-0.726,40.872
'0:00.879',-12.542,1427.119,12.25,-2.593,4.772,2.467,-8.218,2.859,2.394,-8.178,2.816,-0.436,0.176,-0.693,40.876
'0:00.883',-10.391,1466.67,12.192,-3.633,5.046,2.516,-8.219,2.871,2.356,-8.218,2.737,-0.436,0.185,-0.739,40.88
'0:00.887',-4.45,1450.532,11.915,-4.957,5.359,2.541,-8.22,2.872,2.47,-8.178,2.895,-0.44,0.185,-0.739,40.883
'0:00.891',28.171,1412.463,11.715,-5.898,5.376,2.59,-8.197,2.861,2.394,-8.295,2.815,-0.447,0.174,-0.71,40.887
'0:00.895',33.558,1430.05,10.973,-6.831,5.463,2.614,-8.21,2.861,2.548,-8.218,2.896,-0.436,0.181,-0.741,40.891
'0:00.898',22.23,1405.859,10.614,-7.343,5.681,2.675,-8.21,2.886,2.663,-8.259,2.859,-0.447,0.167,-0.745,40.895
'0:00.902',10.114,1402.928,10.27,-7.496,5.72,2.7,-8.223,2.886,2.625,-8.259,2.819,-0.443,0.181,-0.716,40.899
'0:00.906',12.542,1384.6,9.474,-7.626,5.942,2.761,-8.224,2.887,2.779,-8.301,2.822,-0.431,0.169,-0.758,40.903
'0:00.910',10.114,1407.307,8.761,-7.71,6.172,2.822,-8.214,2.9,2.817,-8.184,2.901,-0.431,0.169,-0.758,40.907
'0:00.914',16.31,1393.393,7.909,-7.366,6.285,2.847,-8.214,2.912,2.779,-8.184,2.822,-0.428,0.174,-0.747,40.911
'0:00.918',22.784,1360.445,7.364,-6.854,6.524,2.883,-8.227,2.913,2.817,-8.263,2.822,-0.429,0.176,-0.777,40.915
'0:00.922',-4.727,1336.255,6.359,-6.058,6.825,2.932,-8.24,2.913,2.817,-8.262,2.862,-0.415,0.172,-0.749,40.919
'0:00.926',12.797,1346.531,5.624,-5.163,6.838,2.981,-8.264,2.962,2.894,-8.263,2.902,-0.435,0.167,-0.747,40.923
'0:00.930',23.593,1367.755,4.885,-3.901,7.02,3.03,-8.301,2.962,2.97,-8.379,2.941,-0.442,0.176,-0.716,40.926
'0:00.934',29.789,1370.686,4.032,-2.585,7.055,3.09,-8.338,2.986,2.932,-8.341,2.902,-0.435,0.178,-0.772,40.93
'0:00.938',23.848,1362.635,3.183,-0.887,7.26,3.139,-8.375,2.999,3.047,-8.381,2.943,-0.435,0.178,-0.772,40.934
'0:00.941',29.789,1363.376,2.358,1.025,7.072,3.188,-8.376,3.023,3.124,-8.382,2.944,-0.433,0.169,-0.747,40.938
'0:00.945',28.448,1361.893,1.489,2.991,7.303,3.236,-8.437,3.035,3.124,-8.46,2.943,-0.424,0.172,-0.749,40.942
'0:00.949',37.88,1358.962,0.856,5.079,7.238,3.248,-8.461,3.047,3.201,-8.461,2.944,-0.422,0.181,-0.714,40.946
'0:00.953',44.886,1357.514,-0.271,7.336,7.399,3.285,-8.486,3.047,3.2,-8.499,2.983,-0.428,0.179,-0.768,40.95
'0:00.957',40.84,1316.479,-1.069,9.791,7.081,3.272,-8.522,3.046,3.239,-8.539,2.944,-0.44,0.178,-0.728,40.954
'0:00.961',78.039,1311.358,-1.779,11.925,7.307,3.272,-8.546,3.034,3.201,-8.578,2.904,-0.44,0.178,-0.728,40.958
'0:00.965',89.899,1341.376,-2.594,14.243,6.855,3.234,-8.593,3.02,3.201,-8.656,2.904,-0.436,0.186,-0.728,40.962
'0:00.969',83.703,1317.962,-2.931,16.553,6.751,3.21,-8.628,3.043,3.161,-8.652,3.059,-0.424,0.176,-0.712,40.965
'0:00.973',48.122,1313.548,-3.571,18.687,6.324,3.16,-8.639,3.067,3.123,-8.613,3.059,-0.429,0.176,-0.745,40.969
'0:00.977',15.778,1313.548,-4.175,20.508,6.002,3.136,-8.674,3.065,3.046,-8.651,3.018,-0.438,0.178,-0.72,40.973
'0:00.980',-13.606,1328.203,-4.713,22.129,5.65,3.111,-8.698,3.077,3.122,-8.767,3.097,-0.419,0.186,-0.774,40.977
'0:00.984',-23.06,1329.651,-4.955,23.353,5.246,3.061,-8.744,3.087,3.084,-8.729,3.058,-0.426,0.179,-0.751,40.981
'0:00.988',-2.3,1336.255,-5.143,24.47,4.632,3.049,-8.769,3.063,3.007,-8.805,3.055,-0.426,0.179,-0.751,40.985
'0:00.992',24.934,1332.582,-5.003,25.258,4.302,3.036,-8.816,3.062,3.008,-8.925,2.899,-0.414,0.176,-0.777,40.989
'0:00.996',44.077,1342.859,-5.149,26.015,3.723,3.011,-8.876,3.072,3.008,-8.884,2.977,-0.417,0.186,-0.731,40.993
'0:01.000',51.359,1323.083,-5.092,26.505,3.219,2.974,-8.899,3.083,2.892,-8.842,3.054,-0.435,0.17,-0.754,40.997
'0:01.004',28.448,1342.117,-4.958,26.841,2.779,2.961,-8.91,3.083,2.931,-8.96,3.014,-0.429,0.181,-0.718,41.001
'0:01.008',47.845,1348.721,-4.529,27.155,2.07,2.912,-8.933,3.082,2.853,-8.998,3.012,-0.435,0.19,-0.733,41.005
'0:01.012',55.66,1358.962,-4.233,27.224,1.618,2.876,-8.945,3.069,2.776,-8.996,3.05,-0.435,0.19,-0.754,41.008
'0:01.016',58.364,1335.513,-4.045,26.979,0.77,2.826,-8.968,3.044,2.815,-8.998,2.973,-0.424,0.192,-0.754,41.012
'0:01.020',52.7,1360.445,-3.319,26.918,0,2.789,-8.979,3.043,2.701,-8.997,2.893,-0.429,0.183,-0.745,41.016
'0:01.023',62.133,1341.376,-2.941,26.512,-0.661,2.74,-9.014,3.054,2.738,-9.035,3.01,-0.41,0.195,-0.733,41.02
'0:01.027',62.687,1330.393,-2.269,25.633,-1.562,2.715,-9.038,3.029,2.661,-9.15,2.969,-0.421,0.176,-0.768,41.024
'0:01.031',69.969,1376.549,-1.48,24.982,-2.17,2.678,-9.037,3.028,2.661,-9.111,3.008,-0.433,0.188,-0.718,41.028
'0:01.035',73.993,1325.272,-0.678,24.21,-3.119,2.654,-9.037,3.016,2.699,-9.073,3.009,-0.436,0.195,-0.733,41.032
'0:01.039',69.692,1370.686,0.229,23.315,-3.823,2.617,-9.024,3.028,2.509,-9.034,2.811,-0.436,0.195,-0.733,41.036
'0:01.043',63.219,1324.531,0.808,22.114,-4.867,2.581,-9.011,3.003,2.546,-8.992,3.007,-0.421,0.195,-0.718,41.04
'0:01.047',62.942,1375.101,1.706,21.02,-5.511,2.545,-8.975,2.991,2.393,-8.991,2.926,-0.424,0.19,-0.747,41.044
'0:01.051',68.606,1364.824,2.482,19.651,-6.15,2.483,-8.962,2.966,2.355,-8.993,2.809,-0.415,0.192,-0.714,41.048
'0:01.055',72.375,1327.462,3.205,18.236,-6.829,2.423,-8.924,2.966,2.43,-9.029,3.044,-0.419,0.206,-0.779,41.051
'0:01.059',69.692,1367.014,4.064,16.851,-7.434,2.386,-8.911,2.978,2.393,-8.993,2.848,-0.435,0.186,-0.733,41.055
'0:01.063',79.657,1353.841,4.787,15.314,-8.025,2.338,-8.838,2.991,2.354,-8.912,2.966,-0.424,0.201,-0.708,41.059
'0:01.066',78.039,1320.893,5.636,13.723,-8.538,2.35,-8.849,3.015,2.392,-8.835,2.967,-0.424,0.201,-0.708,41.063
'0:01.070',83.447,1349.463,7.167,10.961,-9.691,2.338,-8.813,3.04,2.315,-8.833,3.004,-0.424,0.195,-0.703,41.067
'0:01.074',103.378,1372.17,7.921,9.692,-10.209,2.363,-8.789,3.065,2.354,-8.835,2.927,-0.422,0.195,-0.747,41.071
'0:01.078',100.972,1350.169,8.472,8.276,-10.596,2.375,-8.777,3.065,2.315,-8.794,3.044,-0.424,0.195,-0.726,41.075
'0:01.082',96.372,1335.513,9.108,7.083,-10.918,2.351,-8.728,3.078,2.354,-8.795,3.006,-0.419,0.197,-0.735,41.079
'0:01.086',95.308,1347.979,9.589,6.035,-10.865,2.315,-8.703,3.065,2.315,-8.754,3.083,-0.435,0.192,-0.741,41.083
'0:01.090',98.8,1369.945,10.124,4.934,-11.179,2.316,-8.631,3.091,2.276,-8.715,3.044,-0.435,0.192,-0.741,41.087
'0:01.094',102.036,1369.945,10.576,3.978,-11.305,2.303,-8.619,3.067,2.276,-8.677,3.044,-0.428,0.197,-0.712,41.09
'0:01.098',116.068,1365.566,10.789,2.96,-11.252,2.292,-8.571,3.031,2.2,-8.599,2.966,-0.44,0.199,-0.714,41.094
'0:01.102',127.119,1361.893,11.257,2.348,-11.553,2.267,-8.535,3.032,2.123,-8.558,3.003,-0.424,0.215,-0.735,41.098
'0:01.105',141.663,1345.79,11.483,1.43,-11.435,2.268,-8.523,3.008,2.2,-8.521,2.966,-0.44,0.197,-0.739,41.102
'0:01.109',99.353,1325.272,11.527,0.673,-11.418,2.268,-8.463,3.021,2.2,-8.521,3.005,-0.422,0.206,-0.701,41.106
'0:01.113',58.897,1371.428,11.747,0.084,-11.479,2.269,-8.439,3.009,2.161,-8.442,3.044,-0.421,0.192,-0.745,41.11
'0:01.117',10.114,1358.256,11.778,-0.497,-11.37,2.256,-8.438,3.045,2.2,-8.482,2.966,-0.421,0.192,-0.745,41.114
'0:01.121',-30.066,1342.117,11.833,-0.994,-11.305,2.257,-8.415,3.01,2.201,-8.406,2.928,-0.447,0.197,-0.708,41.118
'0:01.125',-67.542,1336.255,11.658,-1.446,-11.061,2.269,-8.391,3.022,2.239,-8.289,2.969,-0.45,0.213,-0.72,41.122
'0:01.129',-49.208,1327.462,11.68,-1.775,-10.978,2.257,-8.366,3.034,2.161,-8.364,3.045,-0.433,0.206,-0.699,41.126
'0:01.133',-44.077,1324.531,11.67,-2.287,-10.691,2.269,-8.354,3.047,2.162,-8.404,2.966,-0.436,0.197,-0.737,41.13
'0:01.137',-42.203,1333.324,11.613,-2.142,-10.639,2.282,-8.355,3.023,2.2,-8.404,3.006,-0.443,0.211,-0.718,41.133
'0:01.141',-45.695,1339.186,11.26,-2.708,-10.022,2.294,-8.343,3.023,2.277,-8.367,3.008,-0.443,0.211,-0.718,41.137
'0:01.145',-34.111,1347.238,10.916,-3.075,-9.817,2.306,-8.344,3.012,2.239,-8.367,2.929,-0.45,0.208,-0.712,41.141
'0:01.148',-33.835,1305.496,10.798,-3.113,-9.565,2.331,-8.332,3.024,2.239,-8.366,3.007,-0.449,0.216,-0.68,41.145
'0:01.152',-28.98,1304.755,10.299,-3.144,-9.213,2.319,-8.332,3.012,2.278,-8.369,2.851,-0.443,0.201,-0.695,41.149
'0:01.156',-25.743,1346.531,9.952,-3.266,-8.804,2.343,-8.345,3,2.238,-8.326,3.085,-0.449,0.206,-0.712,41.153
'0:01.160',-28.448,1347.238,9.583,-3.412,-8.669,2.331,-8.369,2.999,2.278,-8.408,2.89,-0.454,0.213,-0.687,41.157
'0:01.164',-32.749,1342.859,9.197,-3.526,-8.138,2.368,-8.346,2.988,2.277,-8.406,2.968,-0.45,0.204,-0.705,41.161
'0:01.168',-33.302,1331.134,8.494,-3.335,-7.521,2.355,-8.382,2.975,2.354,-8.484,3.008,-0.45,0.204,-0.705,41.165
'0:01.172',-29.512,1315.031,8.182,-3.702,-7.133,2.355,-8.37,2.963,2.355,-8.37,2.892,-0.431,0.213,-0.735,41.169
'0:01.176',-11.179,1294.514,7.549,-3.542,-6.572,2.367,-8.37,2.963,2.316,-8.33,2.93,-0.45,0.195,-0.728,41.173
'0:01.180',2.3,1301.824,7.043,-3.641,-6.211,2.38,-8.358,2.976,2.316,-8.408,2.891,-0.445,0.211,-0.689,41.176
'0:01.184',-16.31,1293.772,6.636,-3.809,-5.459,2.367,-8.37,2.963,2.317,-8.409,2.852,-0.45,0.209,-0.703,41.18
'0:01.188',-30.321,1323.824,5.865,-3.786,-4.902,2.38,-8.382,2.988,2.277,-8.367,2.969,-0.435,0.197,-0.731,41.184
'0:01.191',-27.085,1334.807,5.636,-3.893,-4.402,2.392,-8.37,2.988,2.394,-8.411,2.814,-0.45,0.206,-0.697,41.188
'0:01.195',-27.638,1315.737,5.047,-3.687,-4.063,2.392,-8.371,2.952,2.393,-8.37,2.932,-0.45,0.206,-0.697,41.192
'0:01.199',-30.875,1311.358,4.503,-3.526,-3.445,2.417,-8.347,2.965,2.355,-8.331,2.892,-0.443,0.218,-0.722,41.196
'0:01.203',-16.843,1310.617,3.79,-3.649,-2.749,2.417,-8.324,2.941,2.356,-8.371,2.814,-0.442,0.208,-0.724,41.2
'0:01.207',15.501,1309.169,3.561,-3.32,-2.492,2.454,-8.313,2.929,2.393,-8.371,2.853,-0.449,0.209,-0.726,41.204
'0:01.211',33.558,1309.875,2.692,-3.389,-1.857,2.466,-8.289,2.918,2.471,-8.373,2.855,-0.428,0.213,-0.743,41.208
'0:01.215',51.359,1321.6,2.225,-3.274,-1.666,2.466,-8.326,2.893,2.433,-8.334,2.815,-0.436,0.206,-0.735,41.212
'0:01.219',51.082,1310.617,1.715,-3.327,-0.94,2.479,-8.29,2.894,2.356,-8.334,2.775,-0.436,0.206,-0.735,41.215
'0:01.223',34.644,1328.945,1.318,-3.182,-0.331,2.491,-8.267,2.87,2.432,-8.332,2.893,-0.456,0.202,-0.701,41.219
'0:01.227',34.367,1309.169,0.439,-3.167,-0.139,2.503,-8.279,2.882,2.471,-8.257,2.816,-0.452,0.211,-0.703,41.223
'0:01.230',18.738,1320.893,0.15,-2.884,0.261,2.54,-8.256,2.871,2.394,-8.295,2.776,-0.442,0.209,-0.693,41.227
'0:01.234',-11.732,1331.134,-0.452,-2.937,0.696,2.553,-8.244,2.871,2.433,-8.256,2.816,-0.45,0.206,-0.722,41.231
'0:01.238',-58.109,1328.945,-1.079,-2.769,0.983,2.553,-8.232,2.872,2.355,-8.216,2.854,-0.454,0.202,-0.687,41.235
'0:01.242',-90.176,1300.376,-1.601,-2.616,1.357,2.565,-8.233,2.848,2.509,-8.295,2.895,-0.443,0.208,-0.751,41.239
'0:01.246',-78.593,1298.151,-2.183,-2.746,1.879,2.59,-8.233,2.872,2.586,-8.219,2.897,-0.443,0.208,-0.751,41.243
'0:01.250',-82.361,1318.669,-2.645,-2.631,1.966,2.59,-8.233,2.86,2.51,-8.22,2.739,-0.454,0.197,-0.728,41.247
'0:01.254',-64.837,1308.427,-3.313,-2.555,2.31,2.626,-8.222,2.861,2.548,-8.257,2.857,-0.449,0.211,-0.691,41.251
'0:01.258',-44.609,1313.548,-3.587,-2.769,2.51,2.614,-8.233,2.873,2.549,-8.222,2.701,-0.44,0.208,-0.724,41.255
'0:01.262',-42.735,1307.686,-4.013,-2.601,2.745,2.639,-8.222,2.873,2.548,-8.297,2.818,-0.44,0.197,-0.726,41.258
'0:01.266',-44.609,1325.272,-4.831,-2.226,3.314,2.688,-8.21,2.898,2.587,-8.259,2.819,-0.436,0.201,-0.71,41.262
'0:01.270',-31.94,1316.479,-5.525,-2.257,3.51,2.688,-8.223,2.874,2.587,-8.299,2.74,-0.436,0.201,-0.71,41.266
'0:01.273',-17.12,1317.962,-5.805,-2.111,3.728,2.7,-8.211,2.886,2.662,-8.219,2.937,-0.431,0.199,-0.749,41.27
'0:01.277',-13.883,1355.325,-6.397,-1.935,3.81,2.712,-8.2,2.875,2.625,-8.22,2.859,-0.452,0.195,-0.733,41.274
'0:01.281',-10.391,1382.411,-6.922,-1.951,4.237,2.737,-8.2,2.899,2.625,-8.298,2.819,-0.447,0.208,-0.691,41.278
'0:01.285',-10.647,1354.583,-7.434,-1.882,4.258,2.761,-8.201,2.875,2.663,-8.221,2.82,-0.445,0.211,-0.718,41.282
'0:01.289',-14.415,1403.67,-8.029,-1.996,4.532,2.786,-8.213,2.899,2.739,-8.22,2.938,-0.426,0.201,-0.724,41.286
'0:01.293',-16.31,1367.014,-8.415,-2.096,4.78,2.81,-8.225,2.899,2.702,-8.145,2.782,-0.454,0.204,-0.724,41.29
'0:01.297',-14.16,1414.653,-9.182,-1.821,4.998,2.81,-8.237,2.912,2.74,-8.261,2.821,-0.454,0.204,-0.724,41.294
'0:01.301',-26.552,1402.928,-9.484,-1.599,5.337,2.822,-8.237,2.924,2.739,-8.337,2.937,-0.433,0.208,-0.697,41.298
'0:01.305',-26.02,1393.393,-9.974,-1.645,5.559,2.81,-8.261,2.911,2.7,-8.257,3.015,-0.442,0.195,-0.745,41.301
'0:01.309',-29.789,1410.238,-10.413,-1.515,5.794,2.834,-8.261,2.948,2.778,-8.298,2.938,-0.45,0.197,-0.699,41.305
'0:01.313',-32.749,1467.412,-10.693,-1.369,5.859,2.822,-8.261,2.96,2.817,-8.339,2.9,-0.438,0.206,-0.699,41.309
'0:01.316',-30.875,1432.981,-11.177,-1.209,6.224,2.834,-8.273,2.972,2.739,-8.297,2.977,-0.44,0.199,-0.699,41.313
'0:01.320',-27.085,1489.377,-11.397,-1.163,6.285,2.858,-8.285,2.996,2.817,-8.262,2.862,-0.442,0.197,-0.733,41.317
'0:01.324',-26.297,1465.929,-11.868,-1.232,6.568,2.87,-8.309,2.984,2.778,-8.338,2.899,-0.442,0.197,-0.733,41.321
'0:01.328',-28.98,1509.153,-12.358,-1.04,6.772,2.882,-8.309,3.008,2.816,-8.377,2.938,-0.45,0.199,-0.703,41.325
'0:01.332',-31.684,1484.963,-12.603,-1.079,7.077,2.895,-8.322,2.996,2.817,-8.299,2.939,-0.436,0.199,-0.758,41.329
'0:01.336',-30.875,1520.136,-13.109,-1.17,7.316,2.907,-8.346,3.008,2.855,-8.377,2.939,-0.45,0.188,-0.72,41.333
'0:01.340',-27.638,1484.963,-13.5,-1.017,7.612,2.907,-8.346,3.008,2.816,-8.337,3.017,-0.445,0.201,-0.693,41.337
'0:01.344',-26.552,1508.412,-13.834,-1.232,7.66,2.919,-8.358,3.008,2.778,-8.377,2.899,-0.435,0.195,-0.693,41.34
'0:01.348',-28.448,1530.413,-14.041,-1.063,7.925,2.907,-8.358,3.02,2.892,-8.416,3.018,-0.435,0.195,-0.693,41.344
'0:01.352',-30.875,1506.964,-14.379,-0.949,8.129,2.906,-8.393,3.019,2.893,-8.417,2.978,-0.436,0.199,-0.735,41.348
'0:01.355',-30.598,1502.55,-14.767,-0.91,8.234,2.943,-8.382,3.044,2.893,-8.455,2.978,-0.449,0.188,-0.72,41.352
'0:01.359',-28.171,1539.912,-14.786,-1.017,8.504,2.93,-8.406,3.043,2.855,-8.533,2.938,-0.426,0.199,-0.735,41.356
'0:01.363',-26.829,1496.688,-14.993,-1.232,8.512,2.942,-8.429,3.079,2.931,-8.494,3.018,-0.449,0.181,-0.739,41.36
'0:01.367',-28.171,1540.654,-15.343,-1.484,8.73,2.929,-8.477,3.079,2.892,-8.414,3.096,-0.443,0.19,-0.708,41.364
'0:01.371',-30.321,1488.636,-15.422,-1.675,9.13,2.93,-8.465,3.103,2.853,-8.49,3.133,-0.454,0.195,-0.712,41.368
'0:01.375',-30.321,1506.222,-15.661,-1.912,9.234,2.941,-8.525,3.114,2.814,-8.528,3.172,-0.454,0.195,-0.712,41.372
'0:01.379',-28.448,1506.964,-15.563,-2.302,9.152,2.929,-8.548,3.125,2.853,-8.646,3.132,-0.435,0.195,-0.743,41.376
'0:01.383',-27.085,1488.636,-15.473,-2.402,9.391,2.965,-8.573,3.162,2.853,-8.57,3.055,-0.443,0.192,-0.741,41.38
'0:01.387',-27.894,1515.016,-15.725,-2.555,9.53,2.965,-8.584,3.162,2.853,-8.606,3.172,-0.421,0.192,-0.726,41.383
'0:01.391',-29.789,1480.584,-15.753,-3.021,9.761,2.964,-8.62,3.185,2.968,-8.609,3.135,-0.438,0.178,-0.758,41.387
'0:01.395',-30.066,1493.756,-15.483,-3.037,9.691,2.977,-8.596,3.186,2.89,-8.605,3.29,-0.443,0.185,-0.741,41.391
'0:01.398',-43.8,1476.912,-15.55,-3.251,9.817,2.964,-8.644,3.185,2.891,-8.685,3.133,-0.443,0.185,-0.741,41.395
'0:01.402',-42.203,1466.67,-15.26,-3.679,9.913,2.964,-8.668,3.172,2.93,-8.687,3.094,-0.419,0.186,-0.758,41.399
'0:01.406',-43.8,1498.912,-15.282,-3.725,9.9,2.976,-8.693,3.172,2.891,-8.723,3.21,-0.428,0.176,-0.741,41.403
'0:01.410',-46.227,1454.205,-14.757,-4.253,9.878,2.952,-8.704,3.172,2.891,-8.724,3.132,-0.436,0.179,-0.747,41.407
'0:01.414',-30.875,1490.119,-14.675,-4.727,9.843,2.963,-8.729,3.159,2.892,-8.803,3.054,-0.429,0.179,-0.714,41.411
'0:01.418',-28.98,1436.618,-14.461,-5.293,9.669,2.963,-8.729,3.147,2.931,-8.767,2.937,-0.426,0.186,-0.77,41.415
'0:01.422',-26.552,1468.86,-14.029,-5.745,9.46,2.963,-8.754,3.122,2.853,-8.801,3.131,-0.438,0.176,-0.733,41.419
'0:01.426',-26.552,1438.843,-13.688,-6.341,9.469,2.951,-8.777,3.122,2.892,-8.803,3.054,-0.438,0.176,-0.733,41.423
'0:01.430',-28.703,1450.532,-13.363,-7.297,9.426,2.95,-8.826,3.109,2.93,-8.842,3.093,-0.433,0.185,-0.712,41.426
'0:01.434',-45.695,1443.222,-13.274,-7.848,9.073,2.974,-8.838,3.109,2.854,-8.843,2.974,-0.426,0.179,-0.703,41.43
'0:01.438',-44.077,1406.601,-13.004,-8.621,8.878,2.974,-8.923,3.083,3.007,-8.96,3.054,-0.421,0.19,-0.749,41.434
'0:01.441',-27.362,1449.084,-12.67,-9.026,8.791,3.022,-8.971,3.107,2.93,-8.998,3.053,-0.433,0.176,-0.718,41.438
'0:01.445',-28.448,1424.187,-12.173,-9.806,8.482,3.033,-9.08,3.117,3.008,-9.04,2.975,-0.41,0.17,-0.774,41.442
'0:01.449',-13.606,1398.549,-12.199,-10.372,8.347,3.106,-9.165,3.141,3.045,-9.116,3.093,-0.407,0.167,-0.804,41.446
'0:01.453',-13.351,1397.066,-12.1,-11.03,8.325,3.117,-9.212,3.189,3.006,-9.386,3.129,-0.407,0.167,-0.804,41.45
'0:01.457',3.918,1380.963,-11.565,-11.795,8.243,3.129,-9.272,3.2,3.121,-9.31,3.17,-0.41,0.176,-0.754,41.454
'0:01.461',20.079,1361.893,-11.301,-12.43,8.29,3.153,-9.284,3.236,3.044,-9.346,3.247,-0.421,0.174,-0.731,41.458
'0:01.465',34.921,1348.721,-10.964,-12.621,8.425,3.153,-9.296,3.272,3.044,-9.386,3.208,-0.429,0.172,-0.754,41.462
'0:01.469',50.017,1367.014,-10.741,-12.904,8.49,3.153,-9.259,3.297,3.16,-9.311,3.171,-0.424,0.158,-0.762,41.465
'0:01.473',20.356,1378.738,-10.407,-12.56,8.134,3.166,-9.211,3.322,3.16,-9.232,3.211,-0.426,0.176,-0.739,41.469
'0:01.477',7.942,1358.962,-10.108,-12.277,8.038,3.155,-9.151,3.324,3.119,-9.15,3.406,-0.426,0.176,-0.739,41.473
'0:01.480',-24.125,1326.755,-9.643,-11.849,7.699,3.155,-9.103,3.324,3.159,-9.153,3.29,-0.428,0.16,-0.76,41.477
'0:01.484',-27.894,1305.496,-9.474,-11.153,7.507,3.168,-9.067,3.325,3.044,-9.114,3.21,-0.44,0.165,-0.724,41.481
'0:01.488',-16.31,1298.151,-9.108,-10.434,6.925,3.168,-9.043,3.301,3.082,-9.074,3.289,-0.435,0.174,-0.737,41.485
'0:01.492',-0.128,1298.151,-8.93,-9.699,6.281,3.204,-9.069,3.265,3.121,-9.114,3.25,-0.424,0.174,-0.716,41.489
'0:01.496',19.824,1290.841,-8.532,-9.194,6.055,3.216,-9.105,3.253,3.083,-9.154,3.171,-0.417,0.162,-0.804,41.493
'0:01.500',38.689,1292.289,-8.497,-8.567,5.633,3.228,-9.166,3.215,3.198,-9.194,3.212,-0.408,0.154,-0.774,41.497
'0:01.504',21.698,1293.03,-8.166,-7.894,5.333,3.264,-9.192,3.191,3.16,-9.234,3.133,-0.408,0.154,-0.774,41.501
'0:01.508',3.918,1283.531,-8.106,-7.473,4.776,3.24,-9.191,3.191,3.16,-9.232,3.211,-0.419,0.169,-0.781,41.505
'0:01.512',-27.894,1293.772,-7.74,-7.305,4.585,3.252,-9.191,3.191,3.16,-9.351,3.093,-0.426,0.167,-0.739,41.508
'0:01.516',-26.829,1320.152,-7.603,-7.037,4.128,3.216,-9.178,3.203,3.199,-9.274,3.094,-0.426,0.169,-0.737,41.512
'0:01.520',-11.988,1339.186,-7.107,-6.701,3.897,3.191,-9.202,3.202,3.2,-9.197,3.017,-0.417,0.163,-0.724,41.516
'0:01.523',-29.512,1319.41,-6.804,-6.678,3.458,3.167,-9.153,3.203,3.083,-9.232,3.17,-0.422,0.158,-0.76,41.52
'0:01.527',-59.173,1312.1,-6.559,-6.464,3.114,3.142,-9.165,3.202,3.083,-9.271,3.131,-0.422,0.158,-0.76,41.524
'0:01.531',-88.025,1295.22,-6.355,-6.043,2.762,3.13,-9.116,3.203,3.083,-9.115,3.172,-0.429,0.162,-0.735,41.528
'0:01.535',-89.111,1350.169,-5.716,-6.089,2.153,3.106,-9.091,3.227,3.084,-9.155,3.093,-0.421,0.163,-0.795,41.532
'0:01.539',-93.945,1323.083,-5.363,-5.852,1.744,3.107,-9.068,3.191,3.045,-9.154,3.132,-0.433,0.146,-0.76,41.536
'0:01.543',-80.743,1304.755,-5.27,-5.622,1.222,3.107,-9.044,3.191,3.007,-8.999,3.093,-0.429,0.165,-0.726,41.54
'0:01.547',-16.034,1344.307,-4.92,-5.186,0.748,3.107,-9.008,3.168,3.121,-9.075,3.251,-0.436,0.163,-0.728,41.544
'0:01.551',49.208,1361.187,-4.564,-5.056,0.439,3.108,-8.984,3.169,3.083,-9.038,3.133,-0.419,0.167,-0.758,41.548
'0:01.555',113.641,1315.737,-4.217,-4.612,-0.052,3.108,-8.937,3.145,3.085,-9.002,2.977,-0.419,0.167,-0.758,41.551
'0:01.559',207.714,1369.238,-3.892,-4.291,-0.461,3.121,-8.901,3.134,3.046,-8.884,3.055,-0.436,0.158,-0.743,41.555
'0:01.563',239.27,1341.376,-3.8,-3.947,-1.066,3.096,-8.901,3.11,2.969,-8.882,3.054,-0.414,0.165,-0.735,41.559
'0:01.566',244.38,1375.101,-3.641,-3.924,-1.457,3.109,-8.901,3.122,2.969,-8.882,3.054,-0.424,0.151,-0.756,41.563
'0:01.570',202.859,1365.566,-3.564,-3.687,-1.849,3.121,-8.913,3.121,3.085,-8.964,2.938,-0.428,0.162,-0.726,41.567
'0:01.574',186.953,1392.687,-3.106,-3.603,-2.201,3.108,-8.937,3.097,3.046,-8.962,3.016,-0.436,0.167,-0.739,41.571
'0:01.578',39.754,1353.841,-3.065,-3.503,-2.875,3.096,-8.949,3.084,3.008,-8.962,2.976,-0.426,0.162,-0.749,41.575
'0:01.582',-70.778,1396.324,-2.797,-3.442,-2.914,3.059,-8.997,3.083,3.046,-8.963,2.938,-0.426,0.162,-0.749,41.579
'0:01.586',-165.128,1396.324,-2.715,-3.488,-3.354,3.059,-8.985,3.083,3.046,-8.922,3.055,-0.426,0.147,-0.772,41.583
'0:01.590',-278.087,1387.531,-2.559,-3.412,-3.597,3.047,-8.936,3.084,2.931,-8.961,2.975,-0.442,0.167,-0.743,41.587
'0:01.594',-283.474,1426.377,-2.556,-3.343,-3.989,3.047,-8.972,3.083,3.008,-9.002,2.937,-0.426,0.153,-0.714,41.59
'0:01.598',-229.028,1386.825,-2.346,-3.205,-4.089,3.034,-8.972,3.095,2.969,-8.96,3.054,-0.435,0.154,-0.758,41.594
'0:01.602',-168.364,1397.808,-2.256,-3.021,-4.537,3.034,-8.972,3.107,2.968,-8.958,3.132,-0.419,0.16,-0.731,41.598
'0:01.605',-97.181,1425.635,-2.256,-2.914,-4.854,3.058,-9.032,3.094,3.007,-9.077,3.054,-0.419,0.16,-0.731,41.602
'0:01.609',-24.934,1391.946,-2.301,-2.723,-5.224,3.058,-9.045,3.094,3.085,-9.157,2.976,-0.424,0.162,-0.785,41.606
'0:01.613',22.507,1402.187,-2.269,-2.478,-5.285,3.082,-9.081,3.082,3.046,-8.924,2.977,-0.438,0.154,-0.741,41.61
'0:01.617',17.396,1391.204,-2.301,-2.371,-5.459,3.106,-9.118,3.081,2.969,-9.195,2.974,-0.436,0.162,-0.737,41.614
'0:01.621',1.214,1440.291,-2.272,-1.996,-5.607,3.093,-9.166,3.08,3.085,-9.197,2.937,-0.435,0.156,-0.731,41.618
'0:01.625',-9.837,1389.756,-2.447,-1.752,-5.855,3.143,-9.143,3.081,3.085,-9.198,2.897,-0.428,0.154,-0.754,41.622
'0:01.629',-6.878,1424.187,-2.527,-1.392,-5.976,3.13,-9.215,3.092,3.008,-9.197,2.896,-0.44,0.16,-0.728,41.626
'0:01.633',-25.743,1380.221,-2.696,-1.163,-6.172,3.093,-9.225,3.103,3.045,-9.233,3.053,-0.44,0.16,-0.728,41.63
'0:01.637',-45.695,1406.601,-2.715,-0.818,-6.281,3.08,-9.237,3.103,3.007,-9.309,3.091,-0.429,0.158,-0.783,41.633
'0:01.641',-46.227,1373.617,-2.597,-0.581,-6.133,3.055,-9.297,3.065,2.968,-9.309,3.09,-0.436,0.153,-0.754,41.637
'0:01.645',-12.542,1380.963,-2.899,-0.512,-6.364,3.08,-9.298,3.078,3.045,-9.35,3.052,-0.433,0.16,-0.716,41.641
'0:01.648',-11.179,1410.98,-2.648,-0.084,-6.598,3.092,-9.335,3.041,3.008,-9.351,2.934,-0.431,0.16,-0.722,41.645
'0:01.652',-10.391,1360.445,-2.756,0.153,-6.746,3.116,-9.324,3.03,3.046,-9.352,2.896,-0.433,0.167,-0.756,41.649
'0:01.656',-26.552,1364.824,-2.731,0.107,-7.077,3.128,-9.36,3.053,3.085,-9.391,2.935,-0.433,0.167,-1.274,41.653
'0:01.660',-58.109,1383.152,-3.036,0.099,-7.229,3.152,-9.421,3.016,3.085,-9.47,2.895,-0.443,0.158,-0.739,41.657
'0:01.664',-58.364,1356.031,-2.797,0.665,-7.412,3.176,-9.422,3.004,3.162,-9.393,2.897,-0.421,0.158,-0.728,41.661
'0:01.668',-59.982,1346.531,-3.17,0.566,-7.434,3.189,-9.421,3.029,3.084,-9.468,2.973,-0.436,0.163,-0.758,41.665
'0:01.672',-45.418,1345.79,-3.52,0.811,-7.76,3.188,-9.445,3.028,3.162,-9.471,2.897,-0.445,0.158,-0.754,41.669
'0:01.676',-44.886,1356.031,-3.065,1.507,-7.668,3.201,-9.422,3.005,3.123,-9.471,2.896,-0.424,0.169,-0.733,41.673
'0:01.680',-26.829,1315.031,-3.329,1.713,-8.386,3.164,-9.422,2.98,3.084,-9.468,2.973,-0.442,0.153,-0.766,41.676
'0:01.684',-10.923,1323.824,-3.501,2.348,-8.447,3.189,-9.398,2.981,3.162,-9.471,2.897,-0.442,0.153,-0.766,41.68
'0:01.688',3.641,1356.773,-3.657,3.32,-8.712,3.189,-9.374,2.969,3.2,-9.433,2.897,-0.457,0.154,-0.72,41.684
'0:01.691',18.461,1350.91,-3.889,3.687,-9.052,3.177,-9.374,2.981,3.123,-9.431,2.896,-0.454,0.167,-0.735,41.688
'0:01.695',19.824,1322.341,-3.946,4.268,-9.4,3.189,-9.362,2.981,3.123,-9.353,2.936,-0.44,0.163,-0.733,41.692
'0:01.699',7.133,1326.014,-4.09,5.102,-10.013,3.214,-9.338,3.006,3.123,-9.393,2.897,-0.449,0.16,-0.745,41.696
'0:01.703',-23.06,1326.014,-4.405,5.859,-10.139,3.214,-9.35,3.018,3.123,-9.431,2.896,-0.429,0.165,-0.716,41.7
'0:01.707',-25.211,1304.755,-4.79,5.485,-10.004,3.189,-9.373,3.017,3.162,-9.432,2.897,-0.442,0.169,-0.768,41.704
'0:01.711',0.937,1312.1,-4.993,5.66,-10.343,3.201,-9.386,3.005,3.123,-9.431,2.936,-0.442,0.169,-0.768,41.708
'0:01.715',45.418,1331.134,-5.022,6.984,-10.831,3.239,-9.291,2.995,3.315,-9.356,2.978,-0.454,0.16,-0.737,41.712
'0:01.719',80.743,1343.6,-4.707,8.804,-11.157,3.276,-9.243,3.057,3.2,-9.275,3.016,-0.452,0.169,-0.724,41.715
'0:01.723',72.375,1342.117,-5.025,10.242,-11.988,3.301,-9.219,3.034,3.2,-9.159,3.017,-0.443,0.165,-0.714,41.719
'0:01.727',44.886,1321.6,-5.518,11.229,-12.192,3.228,-9.218,3.009,3.239,-9.2,2.939,-0.449,0.165,-0.749,41.723
'0:01.730',9.305,1294.514,-5.853,12.277,-12.292,3.191,-9.183,2.948,3.085,-9.237,2.897,-0.459,0.165,-0.712,41.727
'0:01.734',-14.16,1313.548,-5.77,13.799,-12.705,3.143,-9.134,2.924,3.163,-9.124,2.782,-0.459,0.165,-0.712,41.731
'0:01.738',-32.216,1349.463,-5.681,15.627,-13.118,3.156,-9.038,2.95,3.162,-9.044,2.9,-0.443,0.176,-0.774,41.735
'0:01.742',-11.988,1336.255,-5.865,17.027,-13.797,3.157,-8.978,2.927,3.047,-9.004,2.859,-0.463,0.167,-0.743,41.739
'0:01.746',-8.219,1308.427,-5.76,18.366,-14.341,3.133,-8.918,2.904,3.047,-9.003,2.899,-0.456,0.176,-0.714,41.743
'0:01.750',-8.773,1314.29,-5.853,19.804,-14.911,3.097,-8.833,2.893,3.086,-8.85,2.822,-0.466,0.174,-0.714,41.747
'0:01.754',-12.542,1320.152,-5.719,21.097,-15.041,3.062,-8.688,2.883,3.01,-8.771,2.782,-0.457,0.179,-0.741,41.751
'0:01.758',0.681,1353.841,-5.595,22.795,-15.728,3.028,-8.495,2.886,2.931,-8.612,2.938,-0.461,0.169,-0.722,41.755
'0:01.762',33.558,1364.118,-5.471,24.585,-15.933,3.016,-8.411,2.875,3.049,-8.423,2.747,-0.461,0.169,-0.722,41.758
'0:01.766',37.071,1393.393,-5.429,26.313,-16.929,2.981,-8.266,2.853,2.932,-8.38,2.901,-0.445,0.178,-0.708,41.762
'0:01.770',39.754,1402.187,-5.051,28.004,-17.351,2.97,-8.194,2.842,2.894,-8.147,2.864,-0.461,0.172,-0.737,41.766
'0:01.773',38.413,1398.549,-4.927,29.473,-17.96,2.959,-8.086,2.807,2.933,-8.149,2.786,-0.473,0.176,-0.705,41.77
'0:01.777',50.273,1388.273,-4.503,31.171,-18.177,2.959,-8.027,2.796,2.933,-8.07,2.865,-0.459,0.19,-0.701,41.774
'0:01.781',48.931,1405.118,-4.452,33.029,-18.808,2.972,-8.004,2.749,2.934,-8.034,2.709,-0.464,0.19,-0.691,41.778
'0:01.785',67.797,1399.997,-4.233,34.536,-19.512,2.972,-7.957,2.701,2.933,-7.993,2.787,-0.464,0.19,-0.691,41.782
'0:01.789',70.757,1428.566,-4.058,35.906,-19.791,2.935,-8.005,2.627,2.895,-7.994,2.748,-0.475,0.181,-0.728,41.786
'0:01.793',86.407,1427.825,-4.223,37.298,-20.191,2.96,-7.994,2.603,2.934,-8.035,2.631,-0.463,0.188,-0.699,41.79
'0:01.797',67.542,1433.687,-4.115,38.583,-20.343,2.959,-8.067,2.542,2.858,-8.113,2.551,-0.466,0.195,-0.749,41.794
'0:01.801',66.732,1446.153,-4.166,40.09,-20.839,2.947,-8.091,2.529,2.936,-8.078,2.435,-0.478,0.19,-0.705,41.798
'0:01.805',83.703,1419.773,-4.134,41.398,-20.939,2.933,-8.164,2.479,2.82,-8.192,2.472,-0.478,0.193,-0.701,41.801
'0:01.809',84.512,1466.67,-4.312,42.407,-21.339,2.909,-8.224,2.441,2.821,-8.194,2.354,-0.47,0.201,-0.672,41.805
'0:01.813',85.066,1445.411,-4.462,43.279,-21.452,2.907,-8.321,2.415,2.859,-8.348,2.432,-0.47,0.201,-0.672,41.809
'0:01.816',84.257,1453.463,-4.701,44.266,-21.739,2.944,-8.346,2.415,2.936,-8.428,2.394,-0.466,0.202,-0.722,41.813
'0:01.820',67.797,1443.963,-4.764,45.49,-21.748,2.968,-8.43,2.438,2.897,-8.427,2.432,-0.48,0.202,-0.689,41.817
'0:01.824',68.351,1413.169,-5.13,46.217,-21.726,3.003,-8.527,2.437,3.013,-8.508,2.355,-0.466,0.215,-0.741,41.821
'0:01.828',68.074,1445.411,-5.42,47.571,-21.796,3.05,-8.684,2.447,3.05,-8.7,2.471,-0.482,0.209,-0.714,41.825
'0:01.832',67.542,1395.618,-5.795,48.902,-21.592,3.073,-8.841,2.456,3.013,-8.858,2.353,-0.477,0.22,-0.682,41.829
'0:01.836',67.265,1397.066,-6.133,50.271,-21.326,3.084,-8.997,2.454,3.09,-9.053,2.352,-0.487,0.216,-0.678,41.833
'0:01.840',67.542,1388.273,-6.575,51.892,-20.839,3.119,-9.167,2.439,3.128,-9.17,2.352,-0.487,0.216,-0.678,41.837
'0:01.844',67.797,1401.48,-6.935,53.537,-20.5,3.154,-9.288,2.438,3.088,-9.362,2.428,-0.478,0.232,-0.708,41.84
'0:01.848',67.797,1362.635,-7.212,54.975,-20.1,3.189,-9.421,2.436,3.128,-9.403,2.35,-0.487,0.225,-0.693,41.844
'0:01.852',51.891,1336.255,-7.272,56.421,-19.769,3.187,-9.577,2.433,3.128,-9.637,2.309,-0.468,0.236,-0.676,41.848
'0:01.855',52.168,1345.79,-7.788,59.312,-18.647,3.211,-9.686,2.431,3.127,-9.752,2.386,-0.489,0.224,-0.703,41.852
'0:01.859',51.359,1306.238,-7.444,60.108,-18.342,3.185,-9.782,2.393,3.128,-9.833,2.229,-0.489,0.236,-0.672,41.856
'0:01.863',35.176,1282.048,-7.482,60.452,-17.773,3.196,-9.903,2.342,3.128,-9.947,2.306,-0.489,0.236,-0.672,41.86
'0:01.867',20.356,1290.841,-7.418,60.597,-17.251,3.171,-10.024,2.255,3.128,-9.987,2.267,-0.498,0.248,-0.68,41.864
'0:01.871',20.633,1221.978,-6.897,60.437,-16.942,3.169,-10.134,2.18,3.089,-10.141,2.304,-0.475,0.252,-0.649,41.868
'0:01.875',3.364,1206.581,-6.734,60.008,-16.463,3.156,-10.231,2.106,3.053,-10.263,1.99,-0.491,0.243,-0.693,41.872
'0:01.879',2.555,1210.995,-6.553,59.32,-15.802,3.144,-10.269,2.02,3.052,-10.262,2.068,-0.471,0.257,-0.67,41.876
'0:01.883',2.3,1216.116,-6.171,58.165,-15.293,3.131,-10.318,1.959,3.13,-10.344,1.913,-0.48,0.263,-0.716,41.88
'0:01.887',-12.542,1205.133,-5.97,56.933,-15.098,3.081,-10.366,1.897,3.016,-10.343,1.832,-0.491,0.261,-0.672,41.883
'0:01.891',-11.456,1156.047,-5.28,55.105,-14.671,3.057,-10.39,1.86,2.977,-10.458,1.87,-0.491,0.261,-0.672,41.887
'0:01.895',-27.894,1163.357,-4.977,52.688,-14.476,2.983,-10.449,1.833,2.939,-10.42,1.792,-0.496,0.271,-0.666,41.891
'0:01.898',-29.257,1180.201,-4.252,49.911,-14.293,2.945,-10.484,1.82,2.901,-10.537,1.751,-0.484,0.271,-0.687,41.895
'0:01.902',-30.321,1159.719,-3.59,46.676,-14.136,2.896,-10.532,1.782,2.746,-10.455,1.827,-0.482,0.271,-0.685,41.899
'0:01.906',-29.512,1114.27,-2.966,43.195,-14.271,2.859,-10.507,1.794,2.938,-10.496,1.908,-0.489,0.275,-0.649,41.903
'0:01.910',-28.448,1161.167,-1.995,39.455,-14.223,2.836,-10.459,1.771,2.708,-10.457,1.709,-0.471,0.287,-0.691,41.907
'0:01.914',-27.894,1109.149,-1.403,35.554,-14.084,2.812,-10.35,1.76,2.708,-10.378,1.749,-0.471,0.287,-0.691,41.911
'0:01.918',-28.98,1147.253,-0.821,32.058,-14.215,2.826,-10.218,1.763,2.747,-10.262,1.79,-0.492,0.278,-0.68,41.915
'0:01.922',-29.789,1167.771,0.169,28.815,-14.397,2.84,-10.086,1.777,2.748,-10.07,1.674,-0.482,0.282,-0.674,41.919
'0:01.926',-14.16,1174.375,0.748,26.168,-14.628,2.865,-9.966,1.78,2.785,-10.029,1.793,-0.471,0.291,-0.67,41.923
'0:01.930',-13.351,1181.685,1.225,23.644,-15.037,2.879,-9.846,1.807,2.747,-9.914,1.714,-0.473,0.293,-0.718,41.926
'0:01.934',-11.988,1149.443,1.801,21.563,-15.524,2.868,-9.774,1.796,2.902,-9.878,1.679,-0.491,0.305,-0.641,41.93
'0:01.938',-27.085,1194.857,2.148,19.919,-15.946,2.881,-9.689,1.834,2.824,-9.759,1.756,-0.48,0.31,-0.655,41.934
'0:01.941',-27.894,1196.34,2.454,18.366,-16.263,2.869,-9.605,1.835,2.824,-9.642,1.757,-0.48,0.31,-0.655,41.938
'0:01.945',-29.789,1227.84,3.176,17.28,-17.077,2.895,-9.533,1.861,2.863,-9.565,1.758,-0.466,0.296,-0.708,41.942
'0:01.949',-30.321,1242.496,3.647,16.018,-17.925,2.933,-9.389,1.876,2.863,-9.409,1.798,-0.477,0.312,-0.662,41.946
'0:01.953',-28.98,1249.099,4.147,15.352,-18.486,2.946,-9.293,1.902,2.862,-9.331,1.838,-0.466,0.319,-0.641,41.95
'0:01.957',-11.988,1274.738,4.172,14.931,-19.077,2.972,-9.209,1.928,2.901,-9.293,1.839,-0.477,0.317,-0.676,41.954
'0:01.961',-12.797,1289.393,4.516,15,-19.421,2.985,-9.138,1.905,2.94,-9.179,1.724,-0.491,0.319,-0.618,41.958
'0:01.965',-13.351,1293.772,4.608,15.26,-19.817,2.986,-9.029,1.92,2.94,-9.099,1.841,-0.491,0.333,-0.628,41.962
'0:01.969',-13.074,1307.686,4.564,15.719,-20.356,2.987,-8.97,1.884,2.94,-8.983,1.804,-0.492,0.333,-0.628,41.965
'0:01.973',3.109,1287.168,4.669,16.561,-20.965,2.939,-8.873,1.849,2.902,-8.866,1.804,-0.482,0.328,-0.618,41.969
'0:01.977',18.461,1352.394,4.58,17.57,-21.483,2.952,-8.765,1.851,2.901,-8.787,1.843,-0.482,0.335,-0.634,41.973
'0:01.980',33.835,1352.394,4.589,18.802,-22.074,2.916,-8.717,1.839,2.902,-8.711,1.766,-0.491,0.332,-0.603,41.977
'0:01.984',3.918,1336.255,4.627,19.995,-22.579,2.929,-8.681,1.816,2.903,-8.673,1.727,-0.475,0.342,-0.657,41.981
'0:01.988',-24.402,1371.428,4.223,21.204,-23.17,2.893,-8.621,1.805,2.825,-8.632,1.804,-0.489,0.335,-0.618,41.985
'0:01.992',-55.937,1420.515,4.182,22.787,-23.379,2.881,-8.572,1.817,2.825,-8.553,1.844,-0.489,0.335,-0.618,41.989
'0:01.996',-75.888,1437.36,4.115,24.11,-23.649,2.881,-8.536,1.818,2.787,-8.594,1.725,-0.482,0.349,-0.584,41.993
'0:02.000',-64.561,1449.084,3.883,25.564,-23.705,2.881,-8.512,1.83,2.786,-8.553,1.804,-0.473,0.348,-0.653,41.997
'0:02.004',-64.561,1466.67,3.507,27.185,-23.94,2.857,-8.499,1.843,2.825,-8.554,1.805,-0.454,0.349,-0.668,42.001
'0:02.008',-59.45,1462.256,3.233,28.363,-23.901,2.833,-8.474,1.843,2.787,-8.515,1.765,-0.471,0.351,-0.603,42.005
'0:02.012',-56.214,1456.394,2.766,29.702,-23.906,2.821,-8.45,1.855,2.709,-8.433,1.921,-0.457,0.36,-0.599,42.008
'0:02.016',-42.991,1457.136,2.164,31.117,-23.749,2.784,-8.461,1.854,2.671,-8.474,1.764,-0.475,0.355,-0.616,42.012
'0:02.020',-32.749,1473.98,1.884,32.188,-23.531,2.759,-8.46,1.866,2.671,-8.434,1.842,-0.475,0.355,-0.616,42.016
'0:02.023',-33.026,1520.136,1.454,33.167,-23.344,2.71,-8.471,1.853,2.633,-8.396,1.764,-0.471,0.364,-0.58,42.02
'0:02.027',-27.085,1531.86,0.729,34.162,-23.075,2.686,-8.446,1.865,2.632,-8.511,1.841,-0.473,0.378,-0.584,42.024
'0:02.031',-23.06,1526.74,0.213,34.735,-22.583,2.65,-8.446,1.853,2.594,-8.471,1.879,-0.459,0.376,-0.607,42.028
'0:02.035',-25.743,1515.757,-0.165,35.424,-22.157,2.613,-8.397,1.853,2.555,-8.509,1.918,-0.471,0.365,-0.609,42.032
'0:02.039',-31.13,1510.637,-0.637,35.974,-21.713,2.601,-8.372,1.878,2.518,-8.394,1.762,-0.447,0.371,-0.574,42.036
'0:02.043',-32.216,1552.378,-1.101,36.533,-20.891,2.577,-8.312,1.878,2.513,-8.344,2.348,-0.447,0.371,-0.574,42.04
'0:02.047',-43.267,1536.275,-1.916,37.229,-19.978,2.553,-8.323,1.878,2.44,-8.352,1.878,-0.452,0.374,-0.618,42.044
'0:02.051',-8.219,1530.413,-2.371,37.573,-19.46,2.529,-8.286,1.878,2.402,-8.314,1.8,-0.463,0.371,-0.565,42.048
'0:02.055',-11.456,1530.413,-2.906,37.458,-18.625,2.504,-8.274,1.89,2.478,-8.274,1.918,-0.459,0.383,-0.582,42.051
'0:02.059',-30.598,1578.016,-3.132,37.489,-18.26,2.492,-8.286,1.878,2.364,-8.353,1.76,-0.445,0.385,-0.565,42.055
'0:02.063',-13.883,1558.24,-3.644,37.412,-17.416,2.504,-8.262,1.878,2.44,-8.275,1.839,-0.45,0.379,-0.597,42.059
'0:02.066',3.918,1556.051,-4.058,37.206,-16.864,2.48,-8.238,1.854,2.403,-8.276,1.761,-0.449,0.381,-0.565,42.063
'0:02.070',-10.114,1591.93,-4.144,36.961,-16.328,2.468,-8.25,1.817,2.479,-8.277,1.801,-0.449,0.381,-0.565,42.067
'0:02.074',-25.488,1553.12,-4.456,36.479,-15.641,2.456,-8.213,1.842,2.44,-8.275,1.839,-0.433,0.388,-0.622,42.071
'0:02.078',-58.109,1561.171,-4.732,36.158,-15.089,2.444,-8.189,1.83,2.324,-8.233,1.916,-0.449,0.379,-0.593,42.075
'0:02.082',-75.079,1564.102,-5.146,35.447,-14.589,2.432,-8.177,1.806,2.325,-8.274,1.798,-0.435,0.395,-0.555,42.079
'0:02.086',-76.421,1561.171,-5.273,34.636,-14.175,2.395,-8.2,1.805,2.364,-8.236,1.76,-0.431,0.387,-0.559,42.083
'0:02.090',-61.601,1572.154,-5.394,34.177,-13.649,2.37,-8.2,1.805,2.287,-8.195,1.838,-0.428,0.397,-0.595,42.087
'0:02.094',-61.068,1567.775,-5.738,33.29,-13.01,2.358,-8.212,1.792,2.287,-8.157,1.76,-0.428,0.397,-0.58,42.09
'0:02.098',-43.267,1584.62,-5.888,32.02,-12.514,2.322,-8.199,1.792,2.288,-8.236,1.72,-0.433,0.388,-0.58,42.094
'0:02.102',-42.991,1563.361,-5.757,30.964,-12.179,2.297,-8.198,1.816,2.21,-8.234,1.758,-0.408,0.385,-0.616,42.098
'0:02.105',-43.267,1556.757,-5.63,29.595,-11.722,2.321,-8.199,1.828,2.21,-8.273,1.757,-0.403,0.378,-0.643,42.102
'0:02.109',-44.077,1555.309,-5.757,28.547,-11.635,2.358,-8.223,1.853,2.21,-8.233,1.797,-0.414,0.399,-0.561,42.106
'0:02.113',-43.8,1576.568,-5.226,27.17,-11.296,2.357,-8.271,1.852,2.325,-8.234,1.838,-0.414,0.392,-0.626,42.11
'0:02.117',-58.641,1541.395,-5.34,25.686,-11.022,2.418,-8.332,1.863,2.324,-8.35,1.876,-0.41,0.402,-0.599,42.114
'0:02.121',-42.458,1535.533,-5.137,24.432,-10.878,2.429,-8.417,1.85,2.325,-8.39,1.798,-0.41,0.402,-0.599,42.118
'0:02.125',-28.703,1565.55,-4.866,23.154,-10.717,2.453,-8.489,1.873,2.402,-8.546,1.837,-0.419,0.385,-0.601,42.122
'0:02.129',-14.16,1521.619,-4.669,21.762,-10.452,2.465,-8.537,1.873,2.363,-8.583,1.914,-0.393,0.397,-0.57,42.126
'0:02.133',-12.542,1512.085,-4.475,20.5,-10.309,2.464,-8.574,1.86,2.44,-8.624,1.876,-0.401,0.385,-0.622,42.13
'0:02.137',-24.679,1524.55,-4.37,19.108,-9.982,2.488,-8.634,1.871,2.324,-8.66,1.912,-0.414,0.388,-0.578,42.133
'0:02.141',-39.222,1498.912,-3.854,18.733,-10.33,2.512,-8.67,1.883,2.439,-8.739,1.953,-0.41,0.395,-0.578,42.137
'0:02.145',-42.203,1473.98,-3.351,18.595,-10.626,2.524,-8.73,1.906,2.44,-8.741,1.836,-0.393,0.392,-0.578,42.141
'0:02.148',-15.501,1476.205,-2.775,18.236,-10.757,2.51,-8.862,1.904,2.44,-8.819,1.796,-0.393,0.392,-0.578,42.145
'0:02.152',61.068,1489.377,-2.505,17.119,-10.783,2.485,-8.934,1.878,2.402,-8.976,1.716,-0.4,0.388,-0.616,42.149
'0:02.156',95.563,1441.739,-2.043,15.138,-10.322,2.423,-8.992,1.912,2.401,-9.012,1.833,-0.412,0.385,-0.582,42.153
'0:02.160',72.929,1418.325,-1.629,13.455,-9.878,2.373,-9.087,1.922,2.324,-9.166,1.83,-0.396,0.39,-0.636,42.157
'0:02.164',-14.692,1416.1,-0.872,11.81,-10.117,2.385,-9.064,1.922,2.401,-9.051,1.832,-0.407,0.378,-0.611,42.161
'0:02.168',-95.84,1411.721,0.108,9.692,-9.974,2.459,-9.064,1.972,2.363,-9.09,1.793,-0.405,0.392,-0.572,42.165
'0:02.172',-139.256,1432.239,1.05,9.523,-10.465,2.519,-9.126,1.972,2.438,-9.204,1.988,-0.405,0.392,-0.572,42.169
'0:02.176',-133.316,1369.945,2.097,9.133,-11.318,2.556,-9.103,1.949,2.439,-9.129,1.872,-0.396,0.387,-0.582,42.173
'0:02.180',-99.609,1401.48,2.361,7.473,-11.435,2.544,-9.138,1.984,2.555,-9.132,1.835,-0.393,0.39,-0.624,42.176
'0:02.184',-73.205,1344.307,2.963,6.288,-10.722,2.47,-9.209,1.969,2.439,-9.206,1.91,-0.403,0.376,-0.605,42.18
'0:02.188',-51.082,1355.325,3.558,5.079,-10.844,2.421,-9.171,1.969,2.285,-9.241,1.946,-0.393,0.385,-0.599,42.184
'0:02.191',-40.585,1326.014,4.102,3.304,-10.557,2.347,-9.254,1.967,2.285,-9.242,1.907,-0.401,0.376,-0.626,42.188
'0:02.195',-33.558,1364.824,4.634,1.461,-10.596,2.284,-9.313,1.965,2.285,-9.398,1.867,-0.398,0.378,-0.595,42.192
'0:02.199',-33.835,1323.824,5.563,-0.076,-11.044,2.26,-9.287,2.002,2.246,-9.317,1.984,-0.398,0.378,-0.595,42.196
'0:02.203',-24.679,1317.221,6.18,-1.568,-11.1,2.297,-9.251,2.051,2.246,-9.317,1.984,-0.414,0.385,-0.611,42.2
'0:02.207',-18.738,1334.066,6.89,-3.037,-11.148,2.298,-9.19,2.137,2.168,-9.236,2.1,-0.398,0.378,-0.616,42.204
'0:02.211',-23.316,1298.893,7.164,-4.421,-11,2.298,-9.201,2.149,2.283,-9.199,2.103,-0.41,0.378,-0.63,42.208
'0:02.215',-16.034,1287.91,7.765,-5.783,-10.865,2.286,-9.188,2.173,2.206,-9.237,2.101,-0.387,0.374,-0.599,42.212
'0:02.219',-17.652,1334.066,8.061,-7.137,-10.604,2.261,-9.163,2.21,2.245,-9.199,2.102,-0.403,0.355,-0.643,42.215
'0:02.223',-10.114,1301.824,8.411,-8.231,-10.552,2.249,-9.138,2.234,2.244,-9.236,2.18,-0.403,0.355,-0.643,42.219
'0:02.227',-3.364,1279.858,8.641,-10.028,-10.191,2.237,-9.137,2.295,2.168,-9.12,2.063,-0.414,0.364,-0.603,42.223
'0:02.230',-6.345,1276.185,9.14,-11.237,-9.939,2.237,-9.161,2.306,2.129,-9.195,2.178,-0.41,0.372,-0.611,42.227
'0:02.234',-14.16,1323.824,9.236,-12.484,-9.434,2.237,-9.184,2.354,2.205,-9.233,2.296,-0.407,0.365,-0.601,42.231
'0:02.238',-1.214,1315.737,9.274,-14.098,-8.986,2.212,-9.219,2.389,2.242,-9.309,2.414,-0.415,0.358,-0.632,42.235
'0:02.242',3.918,1328.203,9.099,-16.331,-7.647,2.236,-9.243,2.413,2.089,-9.309,2.294,-0.415,0.362,-0.599,42.239
'0:02.246',26.276,1309.875,9.073,-17.54,-7.072,2.198,-9.313,2.448,2.205,-9.351,2.256,-0.408,0.362,-0.657,42.243
'0:02.250',40.84,1298.893,9.08,-19.024,-6.311,2.222,-9.349,2.52,2.049,-9.383,2.449,-0.408,0.362,-0.657,42.247
'0:02.254',34.921,1297.445,9.01,-20.118,-5.454,2.246,-9.421,2.543,2.164,-9.461,2.528,-0.422,0.355,-0.62,42.251
'0:02.258',17.396,1282.789,8.952,-21.448,-4.38,2.283,-9.422,2.544,2.242,-9.465,2.413,-0.424,0.36,-0.593,42.255
'0:02.262',6.601,1283.531,8.746,-22.764,-3.019,2.283,-9.409,2.58,2.242,-9.463,2.491,-0.412,0.356,-0.588,42.258
'0:02.266',-4.727,1290.099,8.593,-24.256,-2.262,2.283,-9.361,2.581,2.279,-9.462,2.569,-0.415,0.36,-0.639,42.262
'0:02.270',-22.507,1322.341,8.345,-25.877,-1.096,2.308,-9.337,2.594,2.203,-9.383,2.569,-0.426,0.346,-0.618,42.266
'0:02.273',-59.706,1271.807,8.236,-27.43,-0.357,2.308,-9.361,2.606,2.242,-9.424,2.491,-0.41,0.348,-0.649,42.27
'0:02.277',-61.601,1320.152,7.781,-28.914,0.796,2.333,-9.349,2.655,2.28,-9.425,2.453,-0.41,0.348,-0.649,42.274
'0:02.281',-59.706,1303.307,7.501,-30.413,1.97,2.344,-9.384,2.691,2.318,-9.384,2.61,-0.435,0.335,-0.641,42.278
'0:02.285',-40.84,1268.134,7.463,-31.92,2.732,2.344,-9.42,2.726,2.24,-9.459,2.725,-0.419,0.33,-0.651,42.282
'0:02.289',-41.117,1318.669,7.339,-33.343,3.793,2.392,-9.493,2.738,2.241,-9.462,2.53,-0.421,0.333,-0.657,42.286
'0:02.293',-42.735,1303.307,7.275,-33.878,4.75,2.428,-9.565,2.761,2.355,-9.656,2.686,-0.412,0.333,-0.691,42.29
'0:02.297',-28.448,1277.669,7.03,-34.972,5.441,2.525,-9.639,2.786,2.509,-9.697,2.689,-0.442,0.33,-0.645,42.294
'0:02.301',-27.894,1324.531,6.435,-35.676,6.307,2.609,-9.797,2.784,2.586,-9.814,2.728,-0.442,0.33,-0.645,42.298
'0:02.305',-25.211,1320.152,6.266,-35.653,7.555,2.669,-9.955,2.77,2.47,-10.006,2.724,-0.421,0.333,-0.609,42.301
'0:02.309',-24.125,1320.152,5.671,-37.412,8.686,2.692,-10.041,2.732,2.547,-10.007,2.765,-0.431,0.325,-0.657,42.305
'0:02.313',-25.743,1305.496,5.493,-37.084,9.904,2.716,-10.125,2.755,2.547,-10.164,2.686,-0.442,0.317,-0.659,42.309
'0:02.316',33.835,1356.773,4.942,-37.94,10.861,2.703,-10.149,2.755,2.624,-10.166,2.648,-0.438,0.325,-0.641,42.313
'0:02.320',94.222,1329.651,4.296,-39.501,11.753,2.568,-10.171,2.692,2.433,-10.242,2.566,-0.422,0.323,-0.672,42.317
'0:02.324',175.369,1360.445,3.673,-42.576,13.045,2.642,-10.135,2.73,2.546,-10.045,2.804,-0.438,0.321,-0.67,42.321
'0:02.328',274.574,1343.6,3.972,-41.964,14.28,2.754,-10.005,2.806,2.662,-10.009,2.728,-0.438,0.321,-0.67,42.325
'0:02.332',247.617,1337.738,4.07,-40.87,14.706,2.938,-9.983,2.906,2.892,-9.894,2.889,-0.445,0.31,-0.643,42.329
'0:02.336',143.834,1336.997,3.778,-39.233,14.362,2.876,-9.993,2.941,2.853,-10.008,2.965,-0.438,0.316,-0.672,42.333
'0:02.340',4.45,1361.893,2.266,-42.025,15.011,2.778,-9.979,2.928,2.623,-9.966,2.923,-0.438,0.303,-0.676,42.337
'0:02.344',-66.456,1326.755,1.69,-44.067,17.198,2.644,-9.975,2.95,2.546,-10.005,2.882,-0.445,0.3,-0.618,42.34
'0:02.348',-143.025,1383.152,2.26,-43.027,18.308,2.768,-9.82,3.028,2.776,-9.929,2.964,-0.436,0.303,-0.636,42.344
'0:02.352',-85.321,1337.738,3.367,-39.348,18.073,2.868,-9.641,3.081,2.814,-9.695,3.045,-0.436,0.303,-0.636,42.348
'0:02.355',-34.644,1394.135,3.23,-38.529,17.133,2.819,-9.602,3.178,2.738,-9.656,3.005,-0.438,0.298,-0.699,42.352
'0:02.359',-132.23,1352.394,1.719,-40.281,17.442,2.783,-9.545,2.997,2.623,-9.579,2.848,-0.447,0.294,-0.649,42.356
'0:02.363',-153.8,1406.601,1.96,-41.75,18.886,2.76,-9.448,2.998,2.623,-9.538,2.965,-0.443,0.296,-0.653,42.36
'0:02.367',-149.222,1365.566,2.451,-40.021,19.604,2.774,-9.303,3.061,2.777,-9.347,2.93,-0.442,0.289,-0.703,42.364
'0:02.371',-121.456,1416.1,2.686,-39.493,19.091,2.934,-9.212,3.005,2.893,-9.235,2.816,-0.454,0.286,-0.647,42.368
'0:02.375',-76.974,1399.256,3.227,-36.923,18.151,2.861,-9.113,3.054,2.777,-9.114,2.932,-0.435,0.291,-0.628,42.372
'0:02.379',-42.991,1401.48,2.498,-39.501,17.903,2.96,-9.044,2.996,2.892,-9.116,2.973,-0.435,0.291,-0.628,42.376
'0:02.383',-26.297,1457.136,3.141,-36.716,18.769,2.9,-8.971,2.997,2.97,-9.002,2.897,-0.443,0.287,-0.668,42.38
'0:02.387',-46.504,1465.187,3.574,-36.495,18.769,2.863,-8.98,3.068,2.854,-8.998,2.973,-0.461,0.27,-0.672,42.383
'0:02.391',-64.561,1432.239,3.24,-36.12,18.477,2.802,-8.921,2.984,2.662,-8.919,2.893,-0.459,0.284,-0.653,42.387
'0:02.395',-72.929,1460.067,4.315,-35.523,17.96,2.754,-8.87,3.069,2.661,-8.917,3.01,-0.435,0.278,-0.687,42.391
'0:02.398',-30.875,1485.705,4.602,-34.942,17.877,2.791,-8.835,3.07,2.777,-8.84,3.051,-0.454,0.264,-0.678,42.395
'0:02.402',29.789,1508.412,5.932,-32.425,17.264,2.755,-8.785,3.107,2.738,-8.802,2.973,-0.454,0.278,-0.634,42.399
'0:02.406',29.789,1465.187,6.696,-32.219,16.903,2.73,-8.809,3.07,2.662,-8.88,2.932,-0.442,0.278,-0.634,42.403
'0:02.410',-10.647,1476.205,6.492,-33.083,16.368,2.706,-8.797,3.033,2.662,-8.801,2.971,-0.45,0.282,-0.689,42.407
'0:02.414',-16.034,1474.722,7.498,-32.509,16.272,2.705,-8.796,3.081,2.661,-8.761,3.05,-0.464,0.282,-0.618,42.411
'0:02.418',17.929,1484.257,8.621,-31.79,15.846,2.706,-8.773,3.058,2.623,-8.762,2.932,-0.468,0.277,-0.626,42.415
'0:02.422',54.595,1487.188,9.595,-31.079,15.311,2.693,-8.796,3.094,2.661,-8.839,3.01,-0.471,0.268,-0.647,42.419
'0:02.426',26.552,1495.981,10.464,-31.109,14.854,2.656,-8.832,3.032,2.662,-8.84,2.932,-0.468,0.261,-0.651,42.423
'0:02.430',-4.983,1503.291,11.053,-32.066,14.55,2.693,-8.858,3.008,2.623,-8.917,2.931,-0.468,0.261,-0.651,42.426
'0:02.434',-55.681,1523.809,12.402,-31.568,14.497,2.668,-8.857,2.995,2.585,-8.878,2.93,-0.466,0.273,-0.628,42.43
'0:02.438',-59.173,1477.653,14.525,-31.874,13.532,2.729,-8.87,3.02,2.623,-8.996,2.891,-0.468,0.261,-0.655,42.434
'0:02.441',-76.421,1462.998,15.327,-32.349,12.727,2.716,-8.931,2.994,2.662,-8.958,2.853,-0.457,0.259,-0.664,42.438
'0:02.445',-73.738,1457.136,16.616,-32.984,12.549,2.704,-8.931,2.934,2.624,-8.997,2.852,-0.466,0.264,-0.634,42.442
'0:02.449',-40.84,1456.394,17.437,-34.728,12.296,2.594,-8.978,2.895,2.509,-8.996,2.772,-0.47,0.259,-0.647,42.446
'0:02.453',-27.085,1455.688,18.745,-35.73,12.235,2.57,-8.906,2.836,2.509,-8.957,2.772,-0.464,0.261,-0.674,42.45
'0:02.457',2.832,1476.205,19.719,-37.474,11.722,2.521,-8.893,2.811,2.394,-8.956,2.731,-0.464,0.261,-0.674,42.454
'0:02.461',34.921,1412.463,21.266,-37.948,10.918,2.497,-8.846,2.763,2.395,-8.842,2.615,-0.473,0.255,-0.647,42.458
'0:02.465',53.786,1431.497,22.118,-40.243,10.082,2.449,-8.773,2.715,2.433,-8.762,2.773,-0.45,0.254,-0.634,42.462
'0:02.469',56.746,1421.963,23.045,-41.765,9.856,2.449,-8.737,2.74,2.434,-8.765,2.616,-0.464,0.243,-0.672,42.465
'0:02.473',41.117,1430.05,24.276,-42.461,9.304,2.389,-8.664,2.704,2.434,-8.687,2.617,-0.478,0.247,-0.645,42.469
'0:02.477',7.942,1417.584,25.342,-44.61,8.695,2.341,-8.566,2.754,2.356,-8.567,2.734,-0.477,0.257,-0.655,42.473
'0:02.480',-9.305,1361.187,26.409,-46.018,8.042,2.329,-8.505,2.767,2.355,-8.605,2.812,-0.477,0.257,-0.655,42.477
'0:02.484',4.983,1364.118,27.589,-47.005,7.038,2.38,-8.386,2.806,2.316,-8.408,2.891,-0.464,0.259,-0.653,42.481
'0:02.488',4.45,1368.497,28.99,-47.601,6.25,2.405,-8.253,2.833,2.317,-8.254,2.814,-0.473,0.243,-0.67,42.485
'0:02.492',-24.679,1378.032,29.722,-48.84,5.546,2.418,-8.194,2.81,2.395,-8.18,2.738,-0.456,0.25,-0.636,42.489
'0:02.496',-21.974,1373.617,30.683,-49.896,4.832,2.444,-8.075,2.776,2.395,-8.102,2.738,-0.47,0.252,-0.695,42.493
'0:02.500',-24.402,1333.324,31.361,-50.852,4.45,2.42,-8.063,2.728,2.396,-8.065,2.621,-0.485,0.245,-0.651,42.497
'0:02.504',-28.448,1375.807,31.816,-51.311,3.628,2.445,-8.028,2.704,2.357,-7.985,2.7,-0.482,0.248,-0.653,42.501
'0:02.508',17.652,1334.807,32.207,-51.961,3.075,2.445,-8.005,2.681,2.28,-8.024,2.659,-0.482,0.248,-0.653,42.505
'0:02.512',50.826,1368.497,32.404,-52.298,2.401,2.445,-8.041,2.668,2.357,-8.064,2.66,-0.457,0.238,-0.716,42.508
'0:02.516',85.875,1367.014,32.786,-52.244,1.618,2.469,-8.078,2.668,2.357,-8.064,2.621,-0.471,0.243,-0.668,42.512
'0:02.520',72.929,1324.531,32.659,-52.229,1.227,2.493,-8.127,2.643,2.396,-8.184,2.503,-0.487,0.245,-0.632,42.516
'0:02.523',57.555,1347.238,32.735,-52.55,0.987,2.492,-8.199,2.653,2.434,-8.182,2.66,-0.478,0.241,-0.622,42.52
'0:02.527',23.848,1373.617,32.579,-52.39,0.831,2.528,-8.283,2.665,2.511,-8.338,2.66,-0.48,0.245,-0.666,42.524
'0:02.531',83.171,1343.6,32.099,-52.566,0.752,2.564,-8.356,2.676,2.512,-8.419,2.503,-0.48,0.245,-0.645,42.528
'0:02.535',110.937,1334.807,31.777,-52.558,0.752,2.6,-8.417,2.663,2.549,-8.455,2.699,-0.492,0.234,-0.645,42.532
'0:02.539',84.257,1347.238,30.937,-52.443,0.887,2.636,-8.49,2.687,2.626,-8.535,2.621,-0.471,0.238,-0.693,42.536
'0:02.543',62.133,1319.41,30.148,-52.665,1.131,2.671,-8.599,2.698,2.51,-8.688,2.657,-0.498,0.22,-0.666,42.54
'0:02.547',16.034,1333.324,29.387,-52.558,1.414,2.707,-8.671,2.709,2.587,-8.728,2.658,-0.494,0.231,-0.636,42.544
'0:02.551',-8.773,1297.445,28.356,-52.428,1.875,2.731,-8.732,2.708,2.703,-8.73,2.66,-0.499,0.231,-0.641,42.548
'0:02.555',-18.206,1335.513,27.226,-52.099,2.444,2.755,-8.816,2.755,2.665,-8.846,2.62,-0.491,0.238,-0.662,42.551
'0:02.559',-16.843,1286.462,26.036,-51.655,2.819,2.778,-8.9,2.79,2.741,-9.002,2.659,-0.491,0.238,-0.662,42.555
'0:02.563',7.942,1323.083,24.83,-50.929,3.48,2.802,-8.959,2.838,2.664,-8.962,2.697,-0.503,0.231,-0.657,42.559
'0:02.566',43.544,1273.996,23.662,-49.995,3.762,2.85,-9.008,2.886,2.778,-9.039,2.776,-0.482,0.227,-0.63,42.563
'0:02.570',53.509,1301.082,22.3,-49.253,4.641,2.862,-9.067,2.921,2.739,-9.115,2.853,-0.505,0.215,-0.67,42.567
'0:02.574',63.219,1265.203,20.992,-48.075,5.128,2.911,-9.092,2.946,2.893,-9.157,2.856,-0.503,0.224,-0.614,42.571
'0:02.578',80.743,1251.289,19.528,-46.89,5.976,2.947,-9.128,2.982,2.856,-9.197,2.737,-0.512,0.227,-0.639,42.575
'0:02.582',103.378,1273.254,18.299,-45.459,6.655,2.996,-9.153,3.007,2.893,-9.273,2.855,-0.492,0.222,-0.622,42.579
'0:02.586',122.265,1245.427,16.54,-43.708,7.338,3.02,-9.165,3.031,2.931,-9.156,2.895,-0.492,0.222,-0.622,42.583
'0:02.590',118.496,1216.116,15.155,-42.308,8.069,3.045,-9.165,3.055,2.969,-9.195,2.974,-0.508,0.216,-0.662,42.587
'0:02.594',129.27,1262.272,13.421,-40.243,9.104,3.093,-9.166,3.08,2.931,-9.157,2.856,-0.505,0.218,-0.634,42.59
'0:02.598',113.896,1253.478,12.144,-37.81,9.534,3.106,-9.142,3.081,2.969,-9.195,2.974,-0.496,0.218,-0.693,42.594
'0:02.602',103.931,1231.513,10.397,-35.623,10.352,3.143,-9.107,3.094,3.046,-9.119,2.937,-0.506,0.211,-0.643,42.598
'0:02.605',106.891,1205.133,8.854,-33.274,11.009,3.155,-9.095,3.094,3.123,-9.159,2.937,-0.508,0.216,-0.639,42.602
'0:02.609',117.41,1205.875,7.434,-30.582,11.648,3.168,-9.035,3.084,3.085,-9.081,2.937,-0.508,0.216,-0.639,42.606
'0:02.613',95.84,1257.857,5.843,-28.249,12.527,3.156,-9.011,3.096,3.085,-9.003,2.938,-0.496,0.213,-0.62,42.61
'0:02.617',66.988,1245.427,4.456,-25.793,12.992,3.157,-8.951,3.097,3.046,-8.924,2.977,-0.499,0.215,-0.662,42.614
'0:02.621',73.461,1255.668,3.224,-23.315,13.688,3.145,-8.938,3.097,3.085,-8.963,2.977,-0.512,0.206,-0.63,42.618
'0:02.625',73.184,1238.823,1.9,-20.944,14.236,3.158,-8.89,3.134,3.085,-9.004,2.899,-0.492,0.209,-0.693,42.622
'0:02.629',67.265,1229.288,-0.315,-16.981,15.441,3.121,-8.853,3.147,3.046,-8.963,2.938,-0.508,0.199,-0.672,42.626
'0:02.633',63.219,1284.979,-1.391,-14.985,15.994,3.097,-8.828,3.159,3.046,-8.844,3.095,-0.501,0.204,-0.641,42.63
'0:02.637',35.453,1266.651,-2.221,-13.493,16.642,3.11,-8.768,3.172,3.083,-8.844,3.135,-0.501,0.204,-0.641,42.633
'0:02.641',10.923,1260.082,-3.116,-12.162,17.22,3.074,-8.706,3.209,3.007,-8.767,3.017,-0.505,0.206,-0.645,42.637
'0:02.645',-4.983,1320.893,-3.924,-10.977,17.886,3.062,-8.658,3.222,3.007,-8.765,3.134,-0.496,0.208,-0.668,42.641
'0:02.648',-12.797,1298.893,-4.459,-10.227,18.573,3.026,-8.621,3.21,2.968,-8.608,3.213,-0.506,0.192,-0.657,42.645
'0:02.652',-34.644,1320.152,-4.853,-9.37,19.269,3.039,-8.549,3.224,2.93,-8.568,3.173,-0.482,0.195,-0.722,42.649
'0:02.656',-15.225,1320.152,-5.445,-8.82,19.721,3.051,-8.514,3.2,2.891,-8.529,3.173,-0.496,0.195,-0.682,42.653
'0:02.660',6.878,1369.238,-5.856,-8.307,20.404,3.04,-8.465,3.201,2.853,-8.49,3.133,-0.496,0.195,-0.691,42.657
'0:02.664',8.219,1334.807,-6.2,-8.108,20.813,3.028,-8.441,3.189,2.93,-8.492,3.135,-0.487,0.183,-0.691,42.661
'0:02.668',19.824,1389.756,-6.48,-7.917,21.391,3.04,-8.406,3.178,2.968,-8.375,3.176,-0.48,0.192,-0.693,42.665
'0:02.672',0.128,1373.617,-6.906,-7.795,21.944,3.053,-8.382,3.178,2.968,-8.336,3.176,-0.496,0.188,-0.695,42.669
'0:02.676',-13.074,1392.687,-6.932,-7.473,22.557,3.09,-8.371,3.143,2.968,-8.415,3.136,-0.506,0.192,-0.653,42.673
'0:02.680',-8.219,1416.1,-7.145,-7.435,22.709,3.078,-8.36,3.107,3.084,-8.379,3.099,-0.505,0.193,-0.672,42.676
'0:02.684',22.23,1395.618,-7.415,-7.596,23.271,3.127,-8.313,3.108,3.084,-8.379,3.099,-0.485,0.193,-0.655,42.68
'0:02.688',16.843,1435.912,-7.555,-7.382,23.775,3.14,-8.302,3.084,3.124,-8.225,3.023,-0.485,0.193,-0.655,42.684
'0:02.691',-14.692,1397.066,-7.877,-7.359,24.071,3.189,-8.267,3.074,3.123,-8.303,3.022,-0.491,0.192,-0.691,42.688
'0:02.695',-40.308,1430.756,-7.832,-7.152,24.401,3.214,-8.231,3.087,3.122,-8.223,3.14,-0.494,0.195,-0.659,42.692
'0:02.699',-52.977,1446.894,-8.147,-6.854,24.832,3.238,-8.243,3.099,3.123,-8.263,3.101,-0.485,0.193,-0.724,42.696
'0:02.703',-58.364,1399.256,-8.596,-6.724,25.276,3.263,-8.243,3.123,3.084,-8.262,3.1,-0.492,0.174,-0.678,42.7
'0:02.707',-65.37,1423.446,-8.548,-6.647,25.519,3.25,-8.267,3.147,3.2,-8.341,3.141,-0.485,0.19,-0.645,42.704
'0:02.711',-49.464,1447.601,-8.628,-6.272,25.806,3.226,-8.266,3.159,3.161,-8.34,3.14,-0.48,0.186,-0.653,42.708
'0:02.715',-27.638,1414.653,-9.159,-6.418,26.28,3.226,-8.29,3.183,3.161,-8.262,3.18,-0.48,0.186,-0.653,42.712
'0:02.719',-23.06,1397.808,-9.188,-6.525,26.528,3.238,-8.266,3.195,3.161,-8.342,3.062,-0.478,0.195,-0.701,42.715
'0:02.723',-24.679,1437.36,-9.099,-6.77,26.768,3.287,-8.302,3.22,3.198,-8.3,3.258,-0.489,0.179,-0.676,42.719
'0:02.727',-30.066,1434.429,-9.248,-6.976,27.246,3.299,-8.303,3.22,3.199,-8.263,3.18,-0.47,0.178,-0.728,42.723
'0:02.730',-31.684,1378.738,-9.659,-7.152,27.368,3.36,-8.316,3.232,3.276,-8.341,3.22,-0.468,0.17,-0.749,42.727
'0:02.734',-28.171,1389.014,-9.91,-7.535,27.785,3.372,-8.34,3.256,3.353,-8.343,3.183,-0.466,0.169,-0.735,42.731
'0:02.738',-8.773,1420.515,-10.264,-7.489,27.964,3.408,-8.377,3.256,3.353,-8.381,3.182,-0.466,0.169,-0.735,42.735
'0:02.742',21.165,1373.617,-10.588,-7.359,28.142,3.408,-8.364,3.256,3.391,-8.381,3.222,-0.473,0.169,-0.718,42.739
'0:02.746',1.491,1365.566,-10.999,-7.58,28.19,3.433,-8.365,3.257,3.391,-8.458,3.299,-0.468,0.174,-0.716,42.743
'0:02.750',-28.171,1373.617,-11.148,-7.657,28.151,3.445,-8.389,3.281,3.429,-8.419,3.3,-0.464,0.172,-0.728,42.747
'0:02.754',-23.869,1355.325,-11.543,-7.473,28.22,3.481,-8.413,3.305,3.468,-8.498,3.261,-0.457,0.17,-0.722,42.751
'0:02.758',-24.679,1352.394,-11.852,-7.313,28.116,3.506,-8.401,3.33,3.43,-8.46,3.222,-0.471,0.163,-0.728,42.755
'0:02.762',-28.98,1365.566,-11.807,-7.144,27.959,3.542,-8.426,3.354,3.506,-8.46,3.262,-0.457,0.172,-0.718,42.758
'0:02.766',-31.13,1373.617,-12.125,-6.747,27.812,3.567,-8.426,3.379,3.545,-8.5,3.262,-0.457,0.172,-0.718,42.762
'0:02.770',-28.448,1383.152,-12.469,-6.494,27.781,3.591,-8.438,3.391,3.544,-8.459,3.38,-0.463,0.181,-0.703,42.766
'0:02.773',-9.305,1353.1,-12.533,-5.836,27.416,3.591,-8.462,3.427,3.543,-8.496,3.458,-0.463,0.167,-0.743,42.77
'0:02.777',-9.837,1399.256,-12.803,-5.293,27.529,3.603,-8.486,3.439,3.581,-8.419,3.459,-0.473,0.167,-0.697,42.774
'0:02.781',-12.265,1356.773,-12.95,-4.307,27.242,3.602,-8.522,3.45,3.543,-8.535,3.457,-0.47,0.174,-0.71,42.778
'0:02.785',-13.351,1406.601,-13.083,-3.702,26.872,3.614,-8.521,3.474,3.543,-8.535,3.457,-0.459,0.17,-0.687,42.782
'0:02.789',-27.085,1378.032,-12.819,-2.578,26.585,3.614,-8.521,3.486,3.619,-8.574,3.537,-0.459,0.17,-0.731,42.786
'0:02.793',-9.305,1360.445,-13.071,-1.484,26.172,3.626,-8.569,3.486,3.581,-8.535,3.458,-0.457,0.17,-0.731,42.79
'0:02.797',-10.647,1388.273,-13.016,-0.512,25.724,3.651,-8.582,3.486,3.542,-8.611,3.535,-0.468,0.163,-0.697,42.794
'0:02.801',-12.797,1397.066,-12.813,0.719,25.08,3.638,-8.606,3.485,3.581,-8.651,3.496,-0.449,0.165,-0.756,42.798
'0:02.805',-12.797,1416.842,-12.981,1.652,24.732,3.65,-8.618,3.509,3.619,-8.69,3.535,-0.459,0.16,-0.731,42.801
'0:02.809',4.727,1387.531,-12.921,2.562,24.093,3.637,-8.678,3.508,3.581,-8.729,3.495,-0.456,0.169,-0.699,42.805
'0:02.813',-10.114,1410.98,-13.01,3.259,23.601,3.6,-8.724,3.531,3.619,-8.767,3.535,-0.456,0.169,-0.701,42.809
'0:02.816',-9.582,1442.48,-12.851,3.97,23.188,3.575,-8.772,3.53,3.503,-8.803,3.611,-0.456,0.169,-0.701,42.813
'0:02.820',-26.829,1445.411,-12.571,4.765,22.831,3.563,-8.783,3.541,3.504,-8.883,3.493,-0.45,0.17,-0.737,42.817
'0:02.824',-12.265,1444.67,-12.097,5.859,21.357,3.562,-8.807,3.565,3.543,-8.846,3.455,-0.456,0.158,-0.724,42.821
'0:02.828',2.3,1443.222,-11.861,6.142,20.817,3.537,-8.843,3.552,3.427,-8.844,3.453,-0.436,0.169,-0.714,42.825
'0:02.832',19.015,1467.412,-11.537,6.311,20.439,3.537,-8.867,3.54,3.543,-8.808,3.377,-0.445,0.154,-0.739,42.829
'0:02.836',21.442,1481.326,-11.298,6.326,19.882,3.512,-8.89,3.539,3.465,-8.921,3.492,-0.431,0.158,-0.754,42.833
'0:02.840',38.157,1490.825,-10.9,6.425,19.399,3.512,-8.89,3.563,3.427,-8.92,3.53,-0.44,0.158,-0.762,42.837
'0:02.844',52.168,1486.446,-10.321,6.311,18.812,3.475,-8.913,3.55,3.427,-8.998,3.491,-0.44,0.158,-0.762,42.84
'0:02.848',50.55,1479.843,-10.283,5.569,18.308,3.475,-8.901,3.55,3.465,-8.921,3.531,-0.414,0.156,-0.747,42.844
'0:02.852',36.539,1492.309,-9.774,5.332,17.942,3.451,-8.948,3.573,3.427,-8.999,3.452,-0.45,0.156,-0.756,42.848
'0:02.855',54.851,1491.567,-9.086,5.921,16.724,3.438,-8.96,3.561,3.388,-8.996,3.568,-0.422,0.16,-0.728,42.852
'0:02.859',22.784,1497.429,-8.793,5.163,16.346,3.439,-8.876,3.575,3.388,-9.034,3.607,-0.435,0.146,-0.772,42.856
'0:02.863',5.792,1506.964,-8.707,4.551,15.802,3.402,-8.923,3.585,3.312,-8.959,3.411,-0.445,0.158,-0.718,42.86
'0:02.867',4.173,1520.136,-8.144,4.414,15.245,3.365,-8.935,3.56,3.389,-8.96,3.452,-0.445,0.158,-0.718,42.864
'0:02.871',3.109,1556.757,-7.663,3.962,14.536,3.353,-8.91,3.561,3.273,-8.878,3.567,-0.442,0.163,-0.728,42.868
'0:02.875',-42.203,1539.206,-6.922,3.832,13.597,3.353,-8.886,3.597,3.312,-8.919,3.489,-0.433,0.158,-0.728,42.872
'0:02.879',-85.598,1511.343,-6.285,4.398,12.666,3.402,-8.887,3.586,3.35,-8.88,3.49,-0.438,0.156,-0.754,42.876
'0:02.883',-102.313,1541.395,-5.808,4.658,12.336,3.414,-8.887,3.598,3.311,-8.878,3.568,-0.44,0.153,-0.731,42.88
'0:02.887',-109.042,1524.55,-5.468,4.811,11.292,3.427,-8.887,3.623,3.388,-8.88,3.53,-0.428,0.16,-0.783,42.883
'0:02.891',-97.735,1498.912,-5.191,5.003,10.939,3.427,-8.863,3.599,3.272,-8.916,3.606,-0.44,0.149,-0.745,42.887
'0:02.895',-79.402,1537.723,-4.85,5.775,10.187,3.403,-8.826,3.623,3.349,-8.84,3.569,-0.44,0.149,-0.745,42.891
'0:02.898',-57.023,1506.222,-4.478,6.204,9.669,3.391,-8.814,3.611,3.311,-8.84,3.568,-0.431,0.163,-0.714,42.895
'0:02.902',-39.222,1499.619,-4.147,6.777,9.073,3.379,-8.777,3.624,3.311,-8.761,3.608,-0.422,0.158,-0.71,42.899
'0:02.906',-42.991,1526.74,-3.934,7.45,8.33,3.354,-8.801,3.611,3.388,-8.841,3.57,-0.41,0.169,-0.751,42.903
'0:02.910',-46.504,1517.205,-3.52,8.208,7.812,3.33,-8.789,3.599,3.349,-8.879,3.568,-0.433,0.153,-0.741,42.907
'0:02.914',-60.515,1478.395,-3.017,9.6,7.103,3.33,-8.741,3.612,3.272,-8.722,3.608,-0.417,0.16,-0.739,42.911
'0:02.918',-40.585,1455.688,-2.864,11.023,6.694,3.318,-8.717,3.588,3.273,-8.722,3.568,-0.417,0.16,-0.223,42.915
'0:02.922',5.792,1447.601,-2.511,11.436,5.998,3.258,-8.643,3.588,3.157,-8.682,3.567,-0.433,0.147,-0.758,42.919
'0:02.926',1.746,1441.739,-2.511,11.642,5.92,3.172,-8.666,3.538,3.196,-8.643,3.568,-0.433,0.156,-0.731,42.923
'0:02.930',-12.797,1430.756,-2.606,11.688,5.55,3.147,-8.667,3.489,3.082,-8.761,3.409,-0.431,0.163,-0.739,42.926
'0:02.934',-38.966,1423.446,-1.875,12.713,5.059,3.135,-8.654,3.477,3.119,-8.605,3.489,-0.424,0.167,-0.764,42.93
'0:02.938',-37.071,1416.842,-1.289,14.052,4.232,3.149,-8.546,3.504,3.12,-8.567,3.411,-0.431,0.153,-0.762,42.934
'0:02.941',-11.732,1416.842,-1.171,14.067,4.002,3.137,-8.546,3.491,3.081,-8.604,3.488,-0.41,0.16,-0.745,42.938
'0:02.945',-17.929,1427.119,-1.228,14.052,3.91,3.124,-8.547,3.455,3.081,-8.604,3.488,-0.41,0.16,-0.745,42.942
'0:02.949',-14.415,1434.429,-0.926,14.687,3.841,3.1,-8.57,3.442,3.004,-8.604,3.447,-0.407,0.156,-0.781,42.946
'0:02.953',-21.698,1415.394,-0.573,15.513,3.541,3.076,-8.533,3.466,3.043,-8.565,3.449,-0.424,0.146,-0.777,42.95
'0:02.957',-50.273,1399.256,-0.417,15.49,3.288,3.039,-8.533,3.454,2.966,-8.564,3.447,-0.421,0.162,-0.76,42.954
'0:02.961',-56.49,1430.756,-0.315,15.604,3.088,3.014,-8.557,3.429,3.004,-8.603,3.487,-0.419,0.165,-0.785,42.958
'0:02.965',-49.464,1384.6,-0.08,16.018,2.984,2.989,-8.569,3.404,2.889,-8.642,3.367,-0.429,0.154,-0.747,42.962
'0:02.969',-49.741,1419.773,0.541,16.354,2.601,2.965,-8.52,3.405,2.889,-8.446,3.447,-0.422,0.165,-0.747,42.965
'0:02.973',-9.837,1390.462,0.7,16.278,2.61,2.941,-8.507,3.393,2.851,-8.524,3.406,-0.422,0.165,-0.747,42.969
'0:02.977',10.923,1380.221,1.127,16.392,2.34,2.953,-8.509,3.332,2.775,-8.604,3.209,-0.417,0.165,-0.735,42.973
'0:02.980',7.942,1378.738,1.241,16.301,2.14,2.941,-8.533,3.32,2.851,-8.564,3.328,-0.424,0.162,-0.762,42.977
'0:02.984',2.3,1385.342,1.48,16.515,1.77,2.941,-8.558,3.283,2.89,-8.566,3.29,-0.424,0.16,-0.733,42.981
'0:02.988',1.491,1397.066,2.015,16.132,1.679,2.928,-8.57,3.258,2.929,-8.684,3.25,-0.412,0.167,-0.783,42.985
'0:02.992',6.069,1358.962,2.11,15.88,1.522,2.891,-8.606,3.221,2.891,-8.607,3.172,-0.429,0.156,-0.764,42.989
'0:02.996',-5.536,1382.411,2.349,15.406,1.527,2.879,-8.606,3.208,2.851,-8.681,3.327,-0.429,0.156,-0.764,42.993
'0:03.000',-22.507,1396.324,2.797,15.054,1.187,2.854,-8.641,3.195,2.891,-8.723,3.172,-0.422,0.167,-0.728,42.997
'0:03.004',-27.638,1402.187,3.033,14.228,0.848,2.854,-8.654,3.171,2.776,-8.723,3.091,-0.429,0.165,-0.735,43.001
'0:03.008',0.128,1357.514,3.498,13.371,0.735,2.842,-8.666,3.171,2.776,-8.722,3.13,-0.415,0.172,-0.77,43.005
'0:03.012',17.396,1381.669,3.638,12.682,0.635,2.817,-8.689,3.17,2.699,-8.643,3.169,-0.428,0.165,-0.745,43.008
'0:03.016',38.945,1402.187,4.121,12.354,0.213,2.829,-8.678,3.158,2.738,-8.762,3.051,-0.408,0.17,-0.731,43.012
'0:03.020',26.552,1367.014,4.732,10.847,-0.152,2.817,-8.701,3.145,2.815,-8.685,3.092,-0.422,0.162,-0.764,43.016
'0:03.023',40.031,1350.91,5.254,10.135,-0.426,2.841,-8.702,3.134,2.776,-8.683,3.17,-0.422,0.162,-0.764,43.02
'0:03.027',34.111,1372.17,5.477,9.829,-0.857,2.853,-8.715,3.109,2.854,-8.765,2.975,-0.429,0.169,-0.737,43.024
'0:03.031',33.302,1365.566,5.939,9.454,-1.183,2.866,-8.715,3.11,2.892,-8.766,2.976,-0.424,0.174,-0.745,43.028
'0:03.035',38.157,1386.083,6.139,9.179,-1.453,2.866,-8.727,3.109,2.738,-8.763,3.012,-0.415,0.179,-0.747,43.032
'0:03.039',26.552,1357.514,6.152,9.118,-1.857,2.878,-8.728,3.085,2.777,-8.801,3.052,-0.407,0.169,-0.747,43.036
'0:03.043',9.561,1335.513,6.807,8.865,-2.101,2.865,-8.74,3.073,2.739,-8.804,2.895,-0.421,0.172,-0.733,43.04
'0:03.047',4.173,1354.583,6.868,8.712,-2.536,2.865,-8.752,3.06,2.777,-8.842,2.973,-0.421,0.172,-0.733,43.044
'0:03.051',0.937,1360.445,7.237,8.789,-2.758,2.865,-8.741,3.048,2.854,-8.765,2.975,-0.417,0.178,-0.787,43.048
'0:03.055',3.918,1344.307,7.508,8.667,-3.175,2.878,-8.754,3.012,2.738,-8.801,3.051,-0.429,0.169,-0.743,43.051
'0:03.059',-6.878,1324.531,7.574,8.621,-3.558,2.89,-8.73,3.013,2.816,-8.765,2.936,-0.429,0.176,-0.737,43.055
'0:03.063',-36.794,1368.497,7.867,8.544,-3.902,2.865,-8.742,2.988,2.816,-8.765,2.936,-0.419,0.179,-0.714,43.059
'0:03.066',-25.488,1346.531,8.023,8.307,-4.076,2.866,-8.73,2.988,2.777,-8.726,2.935,-0.431,0.169,-0.749,43.063
'0:03.070',-31.94,1315.737,8.017,8.177,-4.563,2.853,-8.742,2.963,2.855,-8.767,2.897,-0.424,0.179,-0.726,43.067
'0:03.074',-15.501,1336.255,8.138,8.269,-4.902,2.841,-8.717,2.976,2.739,-8.765,2.895,-0.424,0.179,-0.726,43.071
'0:03.078',-9.305,1353.841,8.329,8.055,-5.159,2.817,-8.741,2.951,2.662,-8.764,2.855,-0.424,0.179,-0.72,43.075
'0:03.082',-20.633,1334.807,8.329,8.062,-5.467,2.804,-8.753,2.95,2.701,-8.686,2.934,-0.414,0.186,-0.758,43.079
'0:03.086',-23.06,1309.169,8.405,7.749,-5.694,2.78,-8.752,2.95,2.778,-8.765,2.896,-0.424,0.179,-0.739,43.083
'0:03.090',-14.16,1305.496,8.43,7.741,-6.089,2.792,-8.717,2.939,2.74,-8.805,2.856,-0.408,0.179,-0.726,43.087
'0:03.094',-16.843,1356.031,8.631,7.642,-6.259,2.767,-8.753,2.926,2.778,-8.766,2.857,-0.428,0.174,-0.756,43.09
'0:03.098',-10.923,1310.617,8.335,7.404,-6.403,2.78,-8.705,2.915,2.779,-8.768,2.779,-0.428,0.181,-0.731,43.094
'0:03.102',10.647,1336.997,8.383,7.32,-6.607,2.78,-8.717,2.915,2.702,-8.727,2.816,-0.424,0.181,-0.731,43.098
'0:03.105',54.851,1330.393,8.52,7.42,-6.899,2.793,-8.682,2.903,2.739,-8.765,2.895,-0.431,0.192,-0.731,43.102
'0:03.109',109.851,1345.048,8.205,7.512,-6.746,2.78,-8.693,2.903,2.662,-8.725,2.894,-0.419,0.19,-0.756,43.106
'0:03.113',201.517,1337.738,7.912,7.427,-6.955,2.78,-8.681,2.903,2.74,-8.728,2.778,-0.429,0.183,-0.76,43.11
'0:03.117',302.084,1328.945,7.861,7.672,-7.072,2.781,-8.657,2.916,2.662,-8.726,2.855,-0.421,0.188,-0.724,43.114
'0:03.121',281.6,1317.221,7.619,7.925,-6.977,2.719,-8.656,2.879,2.702,-8.728,2.778,-0.424,0.186,-0.779,43.118
'0:03.125',196.13,1369.945,7.39,7.856,-6.798,2.732,-8.608,2.892,2.664,-8.689,2.738,-0.424,0.186,-0.779,43.122
'0:03.129',67.797,1352.394,7.272,7.993,-6.925,2.72,-8.596,2.904,2.663,-8.649,2.778,-0.436,0.183,-0.724,43.126
'0:03.133',-23.593,1338.444,6.938,8.338,-6.885,2.72,-8.584,2.904,2.625,-8.532,2.778,-0.429,0.19,-0.735,43.13
'0:03.137',-112.832,1368.497,6.585,8.644,-6.872,2.708,-8.536,2.905,2.662,-8.645,2.973,-0.421,0.19,-0.714,43.133
'0:03.141',-80.743,1341.376,6.25,8.743,-6.79,2.708,-8.536,2.905,2.701,-8.609,2.896,-0.428,0.19,-0.749,43.137
'0:03.145',-75.612,1362.635,5.843,9.057,-6.611,2.709,-8.523,2.905,2.701,-8.569,2.935,-0.44,0.181,-0.716,43.141
'0:03.148',-147.88,1352.394,5.553,9.202,-6.494,2.696,-8.535,2.905,2.625,-8.531,2.817,-0.419,0.186,-0.779,43.145
'0:03.152',-147.327,1383.152,5.006,9.485,-6.259,2.697,-8.499,2.893,2.624,-8.568,2.934,-0.419,0.186,-0.779,43.149
'0:03.156',-110.937,1358.256,4.761,9.829,-6.033,2.685,-8.487,2.905,2.586,-8.568,2.894,-0.435,0.186,-0.741,43.153
'0:03.160',-72.652,1349.463,4.284,10.151,-5.872,2.673,-8.451,2.894,2.586,-8.413,2.895,-0.433,0.193,-0.718,43.157
'0:03.164',-35.453,1373.617,3.93,10.587,-5.585,2.673,-8.438,2.93,2.702,-8.454,2.858,-0.422,0.19,-0.705,43.161
'0:03.168',-5.536,1382.411,3.383,10.824,-5.354,2.685,-8.439,2.906,2.548,-8.452,2.855,-0.422,0.193,-0.745,43.165
'0:03.172',-0.128,1367.755,2.941,10.885,-5.063,2.661,-8.426,2.918,2.586,-8.452,2.856,-0.422,0.199,-0.718,43.169
'0:03.176',-24.125,1348.721,2.451,11.336,-4.785,2.673,-8.438,2.918,2.625,-8.493,2.817,-0.422,0.199,-0.718,43.173
'0:03.180',-18.738,1367.014,1.97,11.527,-4.493,2.648,-8.45,2.917,2.662,-8.414,2.897,-0.436,0.192,-0.718,43.176
'0:03.184',-19.015,1375.807,1.251,11.91,-3.906,2.648,-8.45,2.917,2.586,-8.491,2.856,-0.429,0.199,-0.751,43.18
'0:03.188',6.601,1328.203,0.955,12.139,-3.658,2.624,-8.449,2.905,2.547,-8.411,2.934,-0.435,0.192,-0.745,43.184
'0:03.191',-2.023,1345.79,0.299,12.292,-3.071,2.636,-8.438,2.893,2.664,-8.418,2.701,-0.417,0.195,-0.724,43.188
'0:03.195',9.561,1317.221,-0.121,12.461,-2.523,2.636,-8.45,2.905,2.51,-8.452,2.776,-0.431,0.186,-0.749,43.192
'0:03.199',-15.778,1364.824,-0.866,12.461,-2.257,2.624,-8.461,2.917,2.547,-8.528,2.933,-0.44,0.19,-0.714,43.196
'0:03.203',-2.023,1337.738,-1.108,12.438,-1.383,2.624,-8.449,2.917,2.548,-8.452,2.855,-0.44,0.19,-0.714,43.2
'0:03.207',4.727,1311.358,-1.649,12.43,-1.048,2.624,-8.461,2.917,2.547,-8.451,2.894,-0.438,0.201,-0.724,43.204
'0:03.211',11.732,1346.531,-2.543,12.399,0.052,2.624,-8.473,2.917,2.546,-8.526,3.011,-0.424,0.202,-0.701,43.208
'0:03.215',9.837,1309.875,-2.912,12.04,0.8,2.611,-8.484,2.941,2.51,-8.57,2.737,-0.431,0.193,-0.754,43.212
'0:03.219',2.555,1347.238,-3.364,11.986,1.144,2.623,-8.485,2.941,2.548,-8.491,2.816,-0.424,0.195,-0.714,43.215
'0:03.223',-0.681,1309.169,-3.752,11.772,1.796,2.636,-8.497,2.941,2.624,-8.491,2.895,-0.419,0.201,-0.768,43.219
'0:03.227',3.918,1361.187,-4.169,11.527,2.397,2.647,-8.534,2.928,2.547,-8.527,2.972,-0.419,0.201,-1.272,43.223
'0:03.230',10.114,1324.531,-4.436,11.313,2.797,2.648,-8.497,2.929,2.585,-8.49,2.934,-0.438,0.188,-0.737,43.227
'0:03.234',9.561,1364.824,-5,11.091,3.406,2.647,-8.534,2.928,2.508,-8.567,2.893,-0.428,0.202,-0.72,43.231
'0:03.238',3.641,1314.29,-5.28,10.816,3.706,2.66,-8.51,2.917,2.548,-8.53,2.816,-0.415,0.201,-0.714,43.235
'0:03.242',0.405,1363.376,-5.452,10.472,4.341,2.659,-8.546,2.904,2.586,-8.529,2.894,-0.417,0.197,-0.747,43.239
'0:03.246',19.015,1317.962,-5.913,10.319,4.576,2.659,-8.546,2.916,2.625,-8.609,2.816,-0.429,0.193,-0.716,43.243
'0:03.250',39.222,1363.376,-5.974,10.219,4.915,2.684,-8.535,2.904,2.586,-8.529,2.894,-0.412,0.201,-0.781,43.247
'0:03.254',40.031,1366.307,-6.41,10.043,5.246,2.696,-8.535,2.905,2.586,-8.568,2.894,-0.412,0.201,-0.781,43.251
'0:03.258',52.7,1342.117,-6.683,9.791,5.607,2.684,-8.523,2.917,2.624,-8.53,2.895,-0.429,0.188,-0.754,43.255
'0:03.262',34.367,1362.635,-7.138,9.707,5.876,2.709,-8.523,2.929,2.7,-8.53,2.974,-0.421,0.197,-0.722,43.258
'0:03.266',5.536,1370.686,-7.53,9.783,5.929,2.697,-8.51,2.941,2.624,-8.569,2.894,-0.412,0.199,-0.735,43.262
'0:03.270',-6.069,1342.117,-7.762,9.73,6.272,2.697,-8.51,2.966,2.625,-8.57,2.816,-0.41,0.19,-0.795,43.266
'0:03.273',7.687,1367.755,-7.994,9.722,6.546,2.684,-8.522,2.977,2.623,-8.606,2.973,-0.433,0.195,-0.745,43.27
'0:03.277',1.746,1353.1,-8.351,9.5,6.69,2.696,-8.546,2.977,2.662,-8.529,2.974,-0.408,0.201,-0.728,43.274
'0:03.281',0.405,1336.997,-8.497,9.34,7.012,2.708,-8.534,2.99,2.624,-8.607,2.933,-0.408,0.201,-0.728,43.278
'0:03.285',20.633,1379.48,-8.87,9.485,7.116,2.708,-8.558,3.001,2.7,-8.607,3.013,-0.422,0.192,-0.758,43.282
'0:03.289',24.402,1368.497,-9.013,9.569,7.381,2.733,-8.558,3.014,2.661,-8.604,3.091,-0.396,0.199,-0.754,43.286
'0:03.293',85.321,1334.066,-9.414,9.63,7.49,2.733,-8.57,3.001,2.777,-8.609,2.975,-0.407,0.204,-0.751,43.29
'0:03.297',126.034,1368.497,-9.649,9.715,7.768,2.745,-8.546,3.002,2.74,-8.612,2.779,-0.41,0.197,-0.777,43.294
'0:03.301',188.039,1356.031,-10.019,9.638,7.99,2.745,-8.595,2.989,2.7,-8.684,3.051,-0.426,0.195,-0.718,43.298
'0:03.305',179.947,1350.169,-10.206,9.822,8.212,2.769,-8.583,3.001,2.623,-8.646,2.933,-0.426,0.195,-0.718,43.301
'0:03.309',96.926,1334.807,-10.591,9.906,8.377,2.769,-8.619,2.989,2.7,-8.685,2.973,-0.429,0.204,-0.733,43.305
'0:03.313',20.356,1364.118,-10.754,9.776,8.638,2.769,-8.632,2.977,2.777,-8.61,2.936,-0.403,0.193,-0.781,43.309
'0:03.316',-8.773,1369.945,-11.164,10.043,8.995,2.794,-8.596,3.002,2.738,-8.607,3.014,-0.405,0.19,-0.787,43.313
'0:03.320',-8.496,1383.152,-11.425,10.204,8.704,2.769,-8.619,2.989,2.739,-8.687,2.896,-0.4,0.193,-0.774,43.317
'0:03.324',8.219,1329.651,-11.591,10.158,9.156,2.744,-8.63,3.012,2.701,-8.647,2.934,-0.41,0.202,-0.71,43.321
'0:03.328',23.593,1348.721,-12.036,10.273,9.465,2.732,-8.63,3.024,2.739,-8.687,2.935,-0.41,0.202,-0.76,43.325
'0:03.332',2.832,1368.497,-12.51,10.112,9.382,2.719,-8.665,3.036,2.586,-8.685,2.854,-0.41,0.202,-0.76,43.329
'0:03.336',11.456,1339.186,-12.453,10.135,9.595,2.719,-8.665,3.036,2.623,-8.761,3.01,-0.419,0.197,-0.731,43.333
'0:03.340',10.114,1368.497,-12.883,10.036,9.687,2.719,-8.713,3.035,2.662,-8.723,2.972,-0.401,0.199,-0.777,43.337
'0:03.344',37.604,1332.582,-12.975,9.913,9.682,2.743,-8.714,3.035,2.739,-8.725,2.934,-0.419,0.19,-0.762,43.34
'0:03.348',81.829,1322.341,-13.023,9.661,9.656,2.755,-8.762,3.047,2.739,-8.804,2.895,-0.414,0.202,-0.737,43.344
'0:03.352',110.404,1345.79,-13.392,9.324,9.935,2.779,-8.811,3.034,2.7,-8.763,2.973,-0.422,0.195,-0.733,43.348
'0:03.355',108.786,1326.755,-13.475,9.34,9.904,2.803,-8.823,3.058,2.662,-8.88,2.932,-0.422,0.195,-0.733,43.352
'0:03.359',81.02,1347.238,-13.739,8.919,10.196,2.791,-8.859,3.033,2.777,-8.921,2.894,-0.407,0.204,-0.764,43.356
'0:03.363',75.079,1336.997,-13.85,8.904,10.022,2.803,-8.859,3.058,2.7,-8.918,2.971,-0.41,0.192,-0.762,43.36
'0:03.367',112.023,1319.41,-14.079,8.498,10.2,2.791,-8.871,3.045,2.662,-8.917,2.971,-0.393,0.204,-0.747,43.364
'0:03.371',151.372,1333.324,-14.312,8.46,10.33,2.791,-8.858,3.082,2.699,-8.916,3.088,-0.4,0.193,-0.768,43.368
'0:03.375',152.714,1315.737,-14.363,8.307,10.104,2.803,-8.871,3.07,2.738,-8.958,2.971,-0.415,0.192,-0.737,43.372
'0:03.379',101.781,1350.169,-14.449,8.276,10.043,2.803,-8.883,3.081,2.738,-8.958,2.971,-0.421,0.199,-0.747,43.376
'0:03.383',52.168,1322.341,-14.181,8.414,9.987,2.79,-8.894,3.105,2.661,-8.954,3.088,-0.421,0.199,-0.747,43.38
'0:03.387',51.891,1341.376,-14.538,8.307,9.621,2.802,-8.918,3.117,2.777,-8.996,3.011,-0.398,0.199,-0.731,43.383
'0:03.391',66.456,1330.393,-14.398,8.468,9.556,2.778,-8.917,3.129,2.738,-8.957,3.011,-0.405,0.188,-0.77,43.387
'0:03.395',96.372,1306.944,-14.2,8.697,8.947,2.79,-8.954,3.128,2.7,-8.995,3.01,-0.403,0.193,-0.741,43.391
'0:03.398',96.926,1306.944,-13.911,8.514,8.782,2.789,-8.978,3.128,2.699,-9.071,3.087,-0.4,0.195,-0.795,43.395
'0:03.402',100.418,1348.721,-13.596,8.835,8.382,2.789,-9.038,3.115,2.776,-9.072,3.128,-0.407,0.19,-0.751,43.399
'0:03.406',86.684,1327.462,-13.064,8.957,7.464,2.812,-9.099,3.114,2.776,-9.151,3.049,-0.407,0.199,-0.741,43.403
'0:03.410',69.415,1317.221,-12.701,8.98,7.225,2.8,-9.135,3.101,2.738,-9.112,3.01,-0.401,0.199,-0.741,43.407
'0:03.414',34.921,1355.325,-12.453,8.781,6.868,2.812,-9.171,3.101,2.776,-9.228,3.048,-0.393,0.195,-0.731,43.411
'0:03.418',33.835,1331.876,-11.998,8.728,6.503,2.775,-9.159,3.076,2.815,-9.192,2.971,-0.393,0.202,-0.777,43.415
'0:03.422',49.464,1312.806,-11.594,8.345,6.255,2.75,-9.17,3.063,2.622,-9.187,3.046,-0.403,0.19,-0.749,43.419
'0:03.426',65.37,1326.755,-11.107,8.169,5.685,2.775,-9.147,3.064,2.738,-9.228,3.048,-0.389,0.197,-0.791,43.423
'0:03.430',66.456,1364.118,-10.525,7.657,4.954,2.726,-9.194,3.039,2.661,-9.267,2.968,-0.403,0.185,-0.779,43.426
'0:03.434',36.794,1339.186,-9.987,7.175,4.519,2.738,-9.195,3.014,2.623,-9.266,2.967,-0.403,0.185,-0.779,43.43
'0:03.438',6.601,1322.341,-9.385,6.456,4.067,2.713,-9.219,2.989,2.7,-9.23,2.89,-0.396,0.195,-0.747,43.434
'0:03.441',4.173,1361.187,-8.87,6.081,3.567,2.689,-9.231,2.952,2.738,-9.191,2.97,-0.407,0.197,-0.743,43.438
'0:03.445',-0.405,1327.462,-8.262,5.377,2.827,2.701,-9.243,2.952,2.624,-9.23,2.851,-0.393,0.197,-0.779,43.442
'0:03.449',14.415,1347.979,-7.597,4.513,2.036,2.676,-9.243,2.952,2.662,-9.192,2.812,-0.401,0.188,-0.779,43.446
'0:03.453',17.652,1361.187,-7.231,3.74,1.54,2.676,-9.255,2.952,2.586,-9.269,2.811,-0.382,0.195,-0.754,43.45
'0:03.457',6.324,1328.945,-6.419,2.907,0.853,2.652,-9.266,2.951,2.585,-9.307,2.849,-0.384,0.179,-0.795,43.454
'0:03.461',6.324,1356.031,-6.228,1.346,0.505,2.627,-9.265,2.987,2.546,-9.344,2.887,-0.384,0.179,-0.795,43.458
'0:03.465',47.59,1340.669,-5.697,0.482,0.248,2.602,-9.325,2.961,2.585,-9.384,2.848,-0.405,0.19,-0.747,43.462
'0:03.469',73.993,1342.859,-4.764,-0.566,-0.657,2.614,-9.301,2.999,2.623,-9.344,2.967,-0.407,0.199,-0.756,43.465
'0:03.473',47.313,1354.583,-3.867,-1.606,-1.501,2.626,-9.325,3.01,2.546,-9.382,2.965,-0.391,0.195,-0.774,43.469
'0:03.477',-19.547,1311.358,-3.335,-1.53,-2.21,2.663,-9.302,2.999,2.662,-9.307,2.889,-0.398,0.185,-0.779,43.473
'0:03.480',-63.496,1323.083,-2.721,-2.54,-2.74,2.603,-9.24,2.999,2.546,-9.227,2.927,-0.384,0.192,-0.743,43.477
'0:03.484',-60.792,1357.514,-3.208,-5.561,-2.701,2.541,-9.239,2.987,2.469,-9.263,3.004,-0.384,0.192,-0.743,43.481
'0:03.488',-28.98,1316.479,-2.425,-6.234,-2.806,2.542,-9.216,2.939,2.509,-9.268,2.77,-0.396,0.192,-0.802,43.485
'0:03.492',4.45,1348.721,-1.423,-5.936,-3.732,2.53,-9.143,2.952,2.509,-9.152,2.771,-0.405,0.188,-0.758,43.489
'0:03.496',22.23,1320.152,-1.05,-6.64,-4.941,2.568,-9.071,2.978,2.546,-9.11,2.928,-0.405,0.192,-0.747,43.493
'0:03.500',2.832,1342.859,-0.831,-6.647,-5.563,2.617,-9.013,2.943,2.508,-9.033,2.889,-0.394,0.195,-0.724,43.497
'0:03.504',-20.633,1327.462,-0.207,-6.089,-6.089,2.557,-8.964,2.931,2.508,-8.994,2.889,-0.375,0.192,-0.764,43.501
'0:03.508',-23.06,1300.376,-0.722,-8.376,-6.485,2.533,-8.939,2.931,2.47,-8.955,2.85,-0.401,0.186,-0.743,43.505
'0:03.512',-13.351,1336.255,-0.522,-9.194,-6.237,2.508,-8.939,2.919,2.355,-8.994,2.77,-0.401,0.186,-0.743,43.508
'0:03.516',15.501,1300.376,-0.267,-9.118,-6.925,2.558,-8.892,2.957,2.585,-8.918,2.891,-0.393,0.195,-0.797,43.512
'0:03.520',-0.405,1332.582,0.115,-9.072,-7.729,2.607,-8.844,2.983,2.508,-8.955,2.929,-0.412,0.185,-0.772,43.516
'0:03.523',-47.59,1354.583,0.36,-8.911,-8.377,2.644,-8.796,3.008,2.585,-8.8,2.97,-0.398,0.192,-0.749,43.52
'0:03.527',-62.942,1306.238,0.086,-9.248,-8.634,2.595,-8.795,3.019,2.584,-8.799,3.01,-0.387,0.188,-0.762,43.524
'0:03.531',-60.259,1330.393,-0.255,-9.814,-8.591,2.595,-8.795,3.019,2.508,-8.839,2.89,-0.389,0.183,-0.818,43.528
'0:03.535',-54.595,1362.635,-0.236,-8.789,-8.695,2.608,-8.747,3.033,2.546,-8.799,2.97,-0.389,0.183,-0.787,43.532
'0:03.539',-22.784,1312.806,-0.156,-7.795,-9.104,2.571,-8.758,3.056,2.508,-8.681,3.009,-0.401,0.183,-0.787,43.536
'0:03.543',-17.396,1350.91,-0.56,-7.053,-9.887,2.62,-8.747,3.045,2.546,-8.76,2.97,-0.401,0.179,-0.797,43.54
'0:03.547',-27.894,1342.117,-0.586,-5.745,-10.235,2.547,-8.769,3.056,2.508,-8.836,3.008,-0.384,0.186,-0.764,43.544
'0:03.551',-24.125,1337.738,-1.149,-6.081,-10.2,2.522,-8.818,3.006,2.469,-8.837,2.929,-0.4,0.192,-0.823,43.548
'0:03.555',-6.878,1364.824,-1.429,-5.829,-10.004,2.571,-8.818,3.019,2.507,-8.875,3.007,-0.393,0.181,-0.779,43.551
'0:03.559',5.792,1333.324,-1.528,-4.414,-10.274,2.608,-8.771,3.056,2.508,-8.759,2.969,-0.405,0.181,-0.787,43.555
'0:03.563',28.98,1353.841,-1.448,-2.417,-10.822,2.682,-8.736,3.094,2.623,-8.721,3.05,-0.405,0.181,-0.787,43.559
'0:03.566',37.348,1386.825,-1.954,-1.277,-11.466,2.718,-8.772,3.118,2.7,-8.763,2.973,-0.415,0.186,-0.741,43.563
'0:03.570',26.276,1349.463,-2.559,0.604,-11.453,2.779,-8.762,3.083,2.738,-8.763,2.973,-0.415,0.197,-0.743,43.567
'0:03.574',42.182,1387.531,-2.963,3.633,-11.274,2.779,-8.797,3.119,2.699,-8.8,3.05,-0.398,0.185,-0.768,43.571
'0:03.578',21.442,1391.946,-3.523,5.592,-11.566,2.742,-8.857,3.105,2.662,-8.84,2.932,-0.412,0.19,-0.772,43.575
'0:03.582',29.512,1350.169,-4.659,6.326,-11.257,2.704,-8.916,3.092,2.623,-8.917,2.97,-0.422,0.19,-0.735,43.579
'0:03.586',22.784,1389.014,-4.974,8.016,-10.896,2.728,-8.989,3.09,2.738,-8.996,2.971,-0.407,0.193,-0.793,43.583
'0:03.590',11.179,1401.48,-5.108,10.502,-11.07,2.753,-8.965,3.14,2.699,-8.955,3.049,-0.407,0.193,-0.793,43.587
'0:03.594',-5.792,1401.48,-5.518,12.935,-11.431,2.789,-8.965,3.152,2.699,-8.955,3.049,-0.419,0.185,-0.762,43.59
'0:03.598',-26.297,1375.101,-5.633,15.582,-11.94,2.802,-8.965,3.165,2.699,-9.033,3.048,-0.412,0.195,-0.733,43.594
'0:03.602',-18.738,1386.083,-6.989,19.07,-11.5,2.752,-8.988,3.176,2.66,-8.992,3.126,-0.424,0.197,-0.718,43.598
'0:03.605',5.259,1413.911,-7.692,19.827,-11.496,2.654,-9.023,3.125,2.584,-9.032,3.007,-0.408,0.199,-0.76,43.602
'0:03.609',23.848,1417.584,-7.727,21.25,-11.148,2.618,-8.986,3.101,2.584,-8.994,2.969,-0.424,0.195,-0.749,43.606
'0:03.613',23.848,1427.119,-7.676,22.581,-11.5,2.569,-8.973,3.101,2.468,-8.99,3.084,-0.424,0.195,-0.749,43.61
'0:03.617',6.601,1438.101,-8.014,23.72,-11.835,2.557,-8.948,3.125,2.469,-8.992,2.967,-0.401,0.204,-0.741,43.614
'0:03.621',-14.415,1438.843,-7.781,24.631,-12.436,2.52,-8.936,3.089,2.469,-8.952,3.045,-0.419,0.186,-0.751,43.618
'0:03.625',-37.88,1452.015,-8.014,25.839,-12.392,2.521,-8.876,3.114,2.432,-8.916,2.849,-0.398,0.197,-0.726,43.622
'0:03.629',-38.413,1469.602,-7.902,27.086,-12.427,2.534,-8.84,3.09,2.391,-8.872,3.084,-0.424,0.201,-0.737,43.626
'0:03.633',-27.638,1471.791,-7.66,28.012,-13.027,2.522,-8.78,3.067,2.431,-8.758,2.968,-0.412,0.211,-0.76,43.63
'0:03.637',-15.225,1462.256,-7.654,28.853,-13.314,2.498,-8.708,3.032,2.431,-8.72,2.929,-0.422,0.199,-0.764,43.633
'0:03.641',-1.491,1482.774,-7.383,29.717,-13.332,2.487,-8.649,3.008,2.353,-8.678,3.045,-0.422,0.199,-0.764,43.637
'0:03.645',-4.173,1525.998,-7.352,30.452,-13.693,2.476,-8.553,2.986,2.431,-8.563,3.008,-0.403,0.208,-0.724,43.641
'0:03.648',-3.109,1527.482,-7.043,31.255,-14.193,2.452,-8.492,2.974,2.392,-8.523,3.047,-0.417,0.202,-0.774,43.645
'0:03.652',-10.391,1543.585,-6.785,32.15,-14.51,2.428,-8.407,2.988,2.355,-8.37,2.892,-0.422,0.201,-0.722,43.649
'0:03.656',-0.405,1547.257,-6.441,32.655,-14.906,2.393,-8.311,2.965,2.393,-8.292,2.932,-0.421,0.209,-0.739,43.653
'0:03.660',12.542,1536.981,-6.149,33.611,-15.154,2.357,-8.202,2.966,2.239,-8.173,2.93,-0.412,0.208,-0.724,43.657
'0:03.664',11.732,1526.74,-5.716,34.46,-15.406,2.309,-8.129,2.955,2.278,-8.057,2.932,-0.412,0.208,-0.751,43.661
'0:03.668',-16.034,1526.74,-5.181,35.362,-15.763,2.285,-8.056,2.932,2.201,-8.017,2.97,-0.421,0.202,-0.751,43.665
'0:03.672',-23.06,1529.671,-4.974,36.135,-16.063,2.249,-7.996,2.92,2.201,-8.018,2.892,-0.421,0.209,-0.72,43.669
'0:03.676',-1.746,1563.361,-4.538,36.334,-16.576,2.188,-7.971,2.895,2.124,-8.054,2.969,-0.408,0.222,-0.779,43.673
'0:03.680',7.942,1570.706,-4.315,36.387,-16.746,2.201,-7.96,2.859,2.202,-7.941,2.853,-0.426,0.206,-0.749,43.676
'0:03.684',10.114,1574.344,-3.838,36.678,-16.724,2.188,-7.971,2.884,2.163,-7.979,2.852,-0.421,0.22,-0.708,43.68
'0:03.688',2.555,1599.982,-3.65,36.969,-17.22,2.237,-7.961,2.836,2.202,-7.902,2.854,-0.426,0.218,-0.735,43.684
'0:03.691',-4.45,1599.275,-3.071,36.808,-17.29,2.199,-8.069,2.809,2.087,-8.097,2.733,-0.426,0.218,-0.735,43.688
'0:03.695',-1.746,1577.275,-3.399,36.212,-17.225,2.235,-8.154,2.772,2.202,-8.058,2.814,-0.435,0.222,-0.703,43.692
'0:03.699',-9.305,1572.154,-3.202,36.54,-17.103,2.259,-8.24,2.746,2.241,-8.255,2.734,-0.417,0.222,-0.716,43.696
'0:03.703',-6.069,1547.999,-2.594,36.724,-16.92,2.319,-8.349,2.77,2.241,-8.45,2.694,-0.424,0.229,-0.71,43.7
'0:03.707',-12.542,1559.688,-2.603,37.168,-16.964,2.367,-8.41,2.745,2.395,-8.531,2.657,-0.431,0.227,-0.697,43.704
'0:03.711',-19.547,1579.499,-2.667,37.137,-16.733,2.366,-8.506,2.743,2.202,-8.564,2.731,-0.424,0.236,-0.712,43.708
'0:03.715',-18.461,1564.102,-2.791,35.997,-16.015,2.389,-8.64,2.729,2.356,-8.723,2.694,-0.431,0.24,-0.726,43.712
'0:03.719',4.45,1517.947,-2.839,36.479,-15.767,2.449,-8.762,2.679,2.434,-8.766,2.538,-0.431,0.24,-0.726,43.715
'0:03.723',7.687,1493.05,-2.657,37.03,-15.393,2.509,-8.883,2.726,2.509,-8.997,2.733,-0.412,0.24,-0.737,43.719
'0:03.727',4.173,1482.774,-3.128,36.915,-15.206,2.642,-9.005,2.762,2.587,-9.039,2.617,-0.428,0.234,-0.747,43.723
'0:03.730',-0.937,1444.67,-2.925,38.055,-15.058,2.653,-9.186,2.735,2.587,-9.155,2.655,-0.405,0.236,-0.716,43.727
'0:03.734',-1.214,1433.687,-3.405,37.688,-14.871,2.688,-9.332,2.721,2.702,-9.429,2.655,-0.414,0.229,-0.758,43.731
'0:03.738',19.015,1449.084,-3.603,37.428,-14.21,2.711,-9.501,2.694,2.549,-9.544,2.573,-0.426,0.241,-0.708,43.735
'0:03.742',6.324,1375.101,-3.825,37.848,-13.349,2.696,-9.694,2.642,2.626,-9.702,2.534,-0.426,0.241,-0.708,43.739
'0:03.746',36.262,1391.204,-3.895,37.412,-13.04,2.707,-9.85,2.651,2.741,-9.896,2.613,-0.428,0.247,-0.722,43.743
'0:03.750',30.875,1350.169,-4.029,37.711,-12.396,2.766,-9.984,2.638,2.663,-9.972,2.65,-0.415,0.247,-0.703,43.747
'0:03.754',46.227,1306.238,-3.819,38.33,-12.322,2.765,-10.14,2.659,2.779,-10.13,2.612,-0.417,0.243,-0.741,43.751
'0:03.758',65.923,1323.824,-3.937,37.94,-12.031,2.8,-10.261,2.633,2.817,-10.326,2.572,-0.422,0.241,-0.705,43.755
'0:03.762',100.418,1294.514,-3.867,37.711,-11.7,2.848,-10.359,2.632,2.778,-10.284,2.689,-0.414,0.254,-0.764,43.758
'0:03.766',114.706,1256.41,-3.335,38.154,-11.231,2.834,-10.503,2.617,2.817,-10.559,2.569,-0.424,0.248,-0.731,43.762
'0:03.770',96.926,1211.737,-3.383,37.443,-11.235,2.858,-10.553,2.544,2.817,-10.558,2.609,-0.424,0.248,-0.731,43.766
'0:03.773',51.891,1202.944,-3.068,36.862,-10.831,2.82,-10.66,2.529,2.74,-10.675,2.528,-0.415,0.259,-0.701,43.77
'0:03.777',23.848,1174.375,-2.676,36.342,-10.8,2.869,-10.698,2.469,2.818,-10.716,2.451,-0.431,0.257,-0.699,43.774
'0:03.781',21.698,1178.012,-2.307,35.232,-10.809,2.893,-10.724,2.432,2.856,-10.678,2.452,-0.407,0.263,-0.728,43.778
'0:03.785',15.225,1158.236,-1.601,34.513,-10.796,2.893,-10.725,2.384,2.857,-10.679,2.413,-0.422,0.261,-0.718,43.782
'0:03.789',12.797,1148.701,-0.92,33.152,-10.891,2.893,-10.725,2.36,2.857,-10.68,2.335,-0.398,0.266,-0.716,43.786
'0:03.793',2.023,1147.995,-0.484,31.806,-10.983,2.857,-10.701,2.311,2.742,-10.68,2.255,-0.398,0.266,-0.716,43.79
'0:03.797',-7.964,1131.15,0.907,28.769,-11.37,2.833,-10.641,2.3,2.781,-10.68,2.256,-0.412,0.252,-0.735,43.794
'0:03.801',-24.934,1104.029,1.849,27.178,-11.77,2.785,-10.592,2.276,2.704,-10.563,2.255,-0.412,0.264,-0.693,43.798
'0:03.805',-16.31,1106.96,2.864,25.579,-12.431,2.761,-10.532,2.264,2.665,-10.485,2.255,-0.421,0.28,-0.712,43.801
'0:03.809',-20.888,1135.529,3.844,23.69,-12.927,2.725,-10.447,2.253,2.665,-10.405,2.334,-0.403,0.273,-0.728,43.805
'0:03.813',-16.31,1134.081,4.732,21.655,-13.819,2.714,-10.327,2.243,2.705,-10.293,2.14,-0.415,0.273,-0.72,43.809
'0:03.816',-9.305,1154.563,5.528,20.049,-14.349,2.703,-10.231,2.208,2.704,-10.174,2.298,-0.394,0.278,-0.691,43.813
'0:03.820',-8.773,1158.978,6.604,18.404,-14.993,2.68,-10.099,2.186,2.705,-10.099,2.142,-0.394,0.278,-0.691,43.817
'0:03.824',-14.969,1167.771,7.422,16.798,-15.663,2.632,-9.99,2.139,2.629,-10.06,2.102,-0.401,0.27,-0.741,43.821
'0:03.828',-19.27,1176.564,8.386,15.222,-16.194,2.609,-9.846,2.117,2.59,-9.904,2.103,-0.412,0.28,-0.726,43.825
'0:03.832',-16.587,1161.167,9.035,13.952,-16.92,2.574,-9.714,2.083,2.514,-9.709,2.064,-0.401,0.286,-0.689,43.829
'0:03.836',4.983,1210.254,9.942,12.667,-17.746,2.539,-9.556,2.109,2.361,-9.591,1.984,-0.387,0.289,-0.728,43.833
'0:03.840',51.891,1210.254,10.83,11.55,-18.964,2.515,-9.471,2.111,2.514,-9.436,2.105,-0.415,0.277,-0.699,43.837
'0:03.844',77.783,1224.168,11.763,10.059,-20.182,2.553,-9.376,2.137,2.475,-9.435,2.104,-0.415,0.286,-0.699,43.84
'0:03.848',138.171,1274.738,12.23,9.08,-20.769,2.615,-9.329,2.151,2.591,-9.399,2.107,-0.414,0.286,-0.699,43.844
'0:03.852',235.224,1284.237,12.638,8.46,-21.505,2.665,-9.258,2.141,2.706,-9.244,2.188,-0.398,0.286,-0.672,43.848
'0:03.855',256.794,1322.341,13.227,7.359,-21.809,2.702,-9.199,2.142,2.63,-9.246,2.03,-0.401,0.284,-0.716,43.852
'0:03.859',217.146,1333.324,13.513,6.892,-22.105,2.69,-9.139,2.131,2.592,-9.167,2.03,-0.407,0.284,-0.678,43.856
'0:03.863',125.224,1332.582,13.523,6.571,-22.283,2.679,-9.043,2.108,2.554,-9.089,2.03,-0.398,0.294,-0.737,43.86
'0:03.867',25.743,1346.531,13.707,6.441,-22.414,2.619,-8.994,2.048,2.554,-9.014,1.913,-0.415,0.284,-0.714,43.864
'0:03.871',-92.327,1369.238,13.768,6.425,-22.87,2.583,-8.91,2.037,2.554,-8.973,1.992,-0.415,0.284,-0.714,43.868
'0:03.875',-158.378,1394.877,13.768,6.379,-23.323,2.559,-8.837,2.026,2.516,-8.857,1.914,-0.415,0.291,-0.676,43.872
'0:03.879',-112.555,1432.239,13.729,6.731,-23.405,2.536,-8.74,2.027,2.439,-8.699,1.992,-0.422,0.294,-0.678,43.876
'0:03.883',-130.079,1457.136,13.841,7.152,-23.549,2.549,-8.681,2.029,2.477,-8.622,1.994,-0.401,0.296,-0.703,43.88
'0:03.887',-142.216,1475.464,13.551,7.611,-23.632,2.524,-8.656,2.029,2.555,-8.626,1.878,-0.421,0.296,-0.678,43.883
'0:03.891',-107.977,1468.118,13.338,8.085,-23.906,2.549,-8.608,2.03,2.515,-8.659,2.111,-0.393,0.3,-0.662,43.887
'0:03.895',-95.308,1473.274,12.886,9.049,-23.901,2.55,-8.585,2.018,2.516,-8.624,1.955,-0.419,0.289,-0.701,43.891
'0:03.898',-82.638,1484.257,12.326,9.806,-23.966,2.55,-8.596,2.03,2.439,-8.739,1.953,-0.419,0.289,-0.701,43.895
'0:03.902',-50.017,1463.739,11.992,10.77,-23.688,2.562,-8.584,2.042,2.439,-8.622,1.954,-0.414,0.298,-0.662,43.899
'0:03.906',-45.972,1473.98,11.25,11.956,-23.436,2.562,-8.56,2.055,2.478,-8.585,1.916,-0.421,0.303,-0.678,43.903
'0:03.910',-27.085,1482.032,10.572,13.111,-22.879,2.538,-8.511,2.068,2.478,-8.624,1.876,-0.405,0.307,-0.682,43.907
'0:03.914',-13.351,1503.291,9.84,14.404,-22.849,2.526,-8.487,2.08,2.438,-8.464,2.111,-0.419,0.298,-0.691,43.911
'0:03.918',-16.843,1517.947,9.162,15.941,-21.918,2.477,-8.461,2.104,2.362,-8.464,2.032,-0.4,0.302,-0.672,43.915
'0:03.922',-16.587,1495.981,8.453,17.31,-21.539,2.465,-8.449,2.104,2.4,-8.465,2.033,-0.4,0.302,-0.672,43.919
'0:03.926',2.555,1510.637,7.746,18.756,-21.231,2.465,-8.437,2.092,2.438,-8.464,2.111,-0.405,0.294,-0.714,43.923
'0:03.930',4.173,1512.826,6.884,20.225,-20.696,2.441,-8.449,2.092,2.362,-8.426,1.993,-0.414,0.3,-0.666,43.926
'0:03.934',18.461,1493.05,6.04,21.334,-19.93,2.441,-8.436,2.104,2.285,-8.462,2.07,-0.417,0.305,-0.672,43.93
'0:03.938',15.778,1492.309,5.273,22.412,-19.247,2.417,-8.436,2.08,2.361,-8.423,2.149,-0.405,0.303,-0.649,43.934
'0:03.941',47.313,1489.377,4.198,23.72,-18.577,2.404,-8.424,2.08,2.323,-8.424,2.071,-0.412,0.302,-0.689,43.938
'0:03.945',64.561,1465.929,3.163,24.638,-17.742,2.392,-8.436,2.079,2.284,-8.305,2.149,-0.415,0.305,-0.657,43.942
'0:03.949',51.891,1445.411,2.365,25.434,-16.807,2.343,-8.423,2.079,2.208,-8.501,1.99,-0.415,0.305,-0.657,43.946
'0:03.953',37.88,1437.36,1.263,26.137,-15.641,2.319,-8.409,2.103,2.246,-8.501,2.03,-0.4,0.312,-0.71,43.95
'0:03.957',4.727,1430.05,0.312,26.811,-14.884,2.27,-8.385,2.091,2.207,-8.421,2.108,-0.41,0.305,-0.676,43.954
'0:03.961',-13.883,1441.739,-0.592,27.17,-13.649,2.246,-8.335,2.115,2.17,-8.384,1.99,-0.41,0.312,-0.647,43.958
'0:03.965',-16.034,1432.981,-1.636,27.468,-12.975,2.209,-8.359,2.09,2.169,-8.343,2.108,-0.398,0.31,-0.649,43.962
'0:03.969',-15.501,1408.79,-2.438,27.614,-11.914,2.222,-8.323,2.127,2.207,-8.382,2.108,-0.396,0.317,-0.68,43.965
'0:03.973',-13.351,1402.187,-3.272,27.56,-10.77,2.185,-8.322,2.139,2.207,-8.382,2.108,-0.396,0.309,-0.666,43.969
'0:03.977',-12.265,1411.721,-4.239,27.568,-9.547,2.185,-8.357,2.175,2.092,-8.381,2.106,-0.405,0.309,-0.666,43.973
'0:03.980',1.746,1415.394,-5.006,27.468,-8.651,2.173,-8.308,2.199,2.13,-8.303,2.147,-0.391,0.319,-0.699,43.977
'0:03.984',-0.405,1416.1,-5.783,27.369,-7.603,2.185,-8.332,2.235,2.13,-8.341,2.185,-0.401,0.3,-0.682,43.981
'0:03.988',16.034,1427.825,-6.712,27.407,-6.546,2.246,-8.356,2.297,2.167,-8.455,2.341,-0.398,0.303,-0.691,43.985
'0:03.992',18.206,1434.429,-7.368,28.264,-4.872,2.319,-8.404,2.369,2.243,-8.378,2.382,-0.387,0.317,-0.674,43.989
'0:03.996',20.079,1380.963,-8.026,28.448,-4.058,2.367,-8.452,2.442,2.204,-8.376,2.46,-0.389,0.314,-0.691,43.993
'0:04.000',19.015,1394.135,-8.392,29.075,-2.932,2.379,-8.44,2.49,2.321,-8.497,2.304,-0.389,0.314,-0.691,43.997
'0:04.004',16.587,1428.566,-8.66,29.388,-1.749,2.355,-8.427,2.49,2.32,-8.377,2.461,-0.405,0.296,-0.705,44.001
'0:04.008',31.684,1379.48,-8.975,29.381,-1.096,2.294,-8.426,2.477,2.204,-8.453,2.498,-0.398,0.314,-0.68,44.005
'0:04.012',32.749,1380.221,-9.089,29.679,-0.679,2.245,-8.425,2.489,2.205,-8.533,2.38,-0.391,0.314,-0.691,44.008
'0:04.016',35.453,1375.807,-9.239,29.32,-0.331,2.22,-8.436,2.488,2.127,-8.53,2.457,-0.398,0.31,-0.691,44.012
'0:04.020',35.73,1395.618,-9.229,29.258,0.091,2.195,-8.471,2.524,2.089,-8.607,2.455,-0.396,0.312,-0.657,44.016
'0:04.023',33.558,1422.704,-9.252,28.769,0.496,2.182,-8.554,2.558,2.088,-8.682,2.572,-0.382,0.317,-0.714,44.02
'0:04.027',31.94,1392.687,-8.921,28.165,0.552,2.193,-8.649,2.605,2.088,-8.643,2.572,-0.382,0.317,-0.714,44.024
'0:04.031',32.749,1419.032,-8.787,27.453,1.379,2.18,-8.745,2.627,2.165,-8.761,2.573,-0.398,0.31,-0.674,44.028
'0:04.035',50.273,1421.256,-8.233,26.428,1.94,2.204,-8.816,2.687,2.164,-8.877,2.611,-0.394,0.319,-0.668,44.032
'0:04.039',50.273,1410.98,-7.718,25.633,2.301,2.215,-8.913,2.698,2.125,-8.915,2.649,-0.387,0.316,-0.647,44.036
'0:04.043',65.114,1430.756,-6.718,24.745,2.671,2.226,-8.972,2.733,2.202,-9.032,2.649,-0.384,0.314,-0.689,44.04
'0:04.047',48.655,1397.808,-5.891,23.812,2.888,2.238,-9.044,2.756,2.24,-8.992,2.768,-0.389,0.309,-0.666,44.044
'0:04.051',65.646,1377.29,-4.822,22.772,3.088,2.225,-9.08,2.755,2.202,-9.108,2.727,-0.389,0.309,-0.666,44.048
'0:04.055',65.646,1389.014,-3.733,21.51,2.862,2.188,-9.067,2.767,2.124,-9.146,2.726,-0.373,0.325,-0.722,44.051
'0:04.059',65.646,1419.773,-2.454,20.202,2.727,2.152,-9.091,2.73,2.126,-9.071,2.609,-0.398,0.303,-0.697,44.055
'0:04.063',80.743,1391.946,-1.174,18.358,2.17,2.139,-9.091,2.729,2.124,-9.107,2.726,-0.38,0.31,-0.662,44.059
'0:04.066',64.561,1367.755,0.264,16.278,1.74,2.102,-9.138,2.704,2.048,-9.107,2.646,-0.387,0.31,-0.664,44.063
'0:04.070',81.552,1394.135,1.839,14.35,1.192,2.077,-9.187,2.654,2.049,-9.225,2.567,-0.379,0.319,-0.697,44.067
'0:04.074',81.276,1401.48,3.402,12.201,0.283,2.052,-9.21,2.641,1.972,-9.223,2.605,-0.384,0.31,-0.697,44.071
'0:04.078',96.372,1396.324,5.14,9.883,-0.544,2.027,-9.259,2.592,2.011,-9.187,2.489,-0.384,0.31,-0.697,44.075
'0:04.082',111.214,1367.755,6.96,7.144,-1.67,2.039,-9.295,2.591,1.972,-9.38,2.525,-0.368,0.321,-0.67,44.079
'0:04.086',127.375,1369.238,8.637,4.819,-2.618,2.026,-9.354,2.614,2.01,-9.418,2.604,-0.38,0.305,-0.708,44.083
'0:04.090',159.74,1395.618,10.563,2.302,-3.61,2.026,-9.414,2.625,1.972,-9.419,2.525,-0.391,0.309,-0.666,44.087
'0:04.094',175.902,1390.462,12.154,-0.084,-4.619,2.013,-9.439,2.6,1.972,-9.497,2.525,-0.393,0.316,-0.676,44.09
'0:04.098',161.082,1343.6,14.197,-2.654,-5.811,2.001,-9.45,2.624,1.932,-9.533,2.641,-0.373,0.321,-0.655,44.094
'0:04.102',116.324,1336.997,16.072,-5.026,-7.212,2,-9.497,2.648,1.933,-9.573,2.562,-0.373,0.31,-0.697,44.098
'0:04.105',100.972,1356.773,18.048,-7.787,-8.251,1.963,-9.568,2.658,1.932,-9.533,2.641,-0.373,0.31,-0.697,44.102
'0:04.109',80.743,1358.256,19.942,-10.342,-9.513,1.95,-9.628,2.669,1.932,-9.687,2.679,-0.375,0.314,-0.664,44.106
'0:04.113',61.324,1364.118,21.752,-13.08,-10.778,1.949,-9.712,2.679,1.817,-9.803,2.637,-0.377,0.321,-0.72,44.11
'0:04.117',62.133,1314.29,23.522,-15.589,-11.661,1.911,-9.783,2.702,1.856,-9.882,2.559,-0.393,0.31,-0.678,44.114
'0:04.121',65.114,1336.255,25.622,-18.297,-12.771,1.898,-9.865,2.773,1.854,-9.918,2.754,-0.391,0.314,-0.662,44.118
'0:04.125',96.926,1296.703,27.226,-20.814,-13.74,1.923,-9.893,2.591,1.894,-9.922,2.559,-0.384,0.319,-0.649,44.122
'0:04.129',124.948,1336.997,28.34,-23.804,-14.754,1.946,-9.981,2.445,1.818,-9.923,2.44,-0.384,0.319,-0.649,44.126
'0:04.133',108.233,1278.375,29.925,-26.826,-15.372,1.994,-10.065,2.504,1.933,-10.079,2.48,-0.387,0.317,-0.689,44.13
'0:04.137',81.829,1312.806,31.501,-29.167,-16.107,2.091,-10.149,2.637,2.048,-10.197,2.52,-0.394,0.312,-0.659,44.133
